AP Cora 5001
Software_Version;1.4.1
[SAMPLE]
Sample_Name;Sample2_haversian_3
Method;
[PARAMETERS]
Instrument_Type;Cora 5001
Instrument_SN;99119713
Last_SST;3/7/2024 1:00:25 PM +00:00
User_Name;labmanager
Measurement_Started;3/7/2024 3:37:08 PM
Measurement_Finished;3/7/2024 3:37:39 PM
Measurement_Saved;3/7/2024 3:37:39 PM
Wavelength;785
Laser_Power;30
Auto_Exposure;False
Exposure_Time;5000
Averaged_Spectra;3
Probe_Type;Regular Probe (785 nm)
Probe_SN;99101107
Dark_Background;True
User_Background_Spectrum;
Spike_Removal;True
Baseline_Correction;False
Smoothing;False
Normalization;None
[SPECTRUM QUALITY]
Quality_Saturation;False
Quality_SBR;NaN
Quality_Temperature;False
[SPECTRUM]
100.00;5013.58
102.00;4914.40
104.00;4774.50
106.00;4609.55
108.00;4436.95
110.00;4256.65
112.00;4037.02
114.00;3795.95
116.00;3553.10
118.00;3327.91
120.00;3113.59
122.00;2887.59
124.00;2684.11
126.00;2500.18
128.00;2326.06
130.00;2161.89
132.00;2016.84
134.00;1882.87
136.00;1761.36
138.00;1659.29
140.00;1564.82
142.00;1483.03
144.00;1405.93
146.00;1343.07
148.00;1291.35
150.00;1241.39
152.00;1202.11
154.00;1169.49
156.00;1140.02
158.00;1121.70
160.00;1101.83
162.00;1089.61
164.00;1079.90
166.00;1069.43
168.00;1057.38
170.00;1049.51
172.00;1047.55
174.00;1038.68
176.00;1030.80
178.00;1031.73
180.00;1027.93
182.00;1018.49
184.00;1011.44
186.00;1011.12
188.00;1008.71
190.00;1000.59
192.00;1001.62
194.00;997.79
196.00;999.50
198.00;994.54
200.00;994.36
202.00;991.41
204.00;992.00
206.00;990.58
208.00;988.74
210.00;990.39
212.00;995.58
214.00;992.11
216.00;988.63
218.00;991.47
220.00;988.24
222.00;985.43
224.00;987.36
226.00;988.62
228.00;987.13
230.00;984.90
232.00;986.68
234.00;991.23
236.00;986.01
238.00;990.19
240.00;991.18
242.00;990.41
244.00;989.71
246.00;993.84
248.00;993.91
250.00;991.12
252.00;994.03
254.00;998.42
256.00;1000.04
258.00;998.69
260.00;999.79
262.00;1004.24
264.00;1001.01
266.00;1005.64
268.00;1007.76
270.00;1003.78
272.00;1003.30
274.00;1003.43
276.00;1007.77
278.00;1008.10
280.00;1009.57
282.00;1012.74
284.00;1010.75
286.00;1009.46
288.00;1010.28
290.00;1008.06
292.00;1007.47
294.00;1009.43
296.00;1009.76
298.00;1008.65
300.00;1003.97
302.00;1002.29
304.00;1005.61
306.00;1003.54
308.00;1008.55
310.00;1008.42
312.00;1009.81
314.00;1008.88
316.00;1009.19
318.00;1015.15
320.00;1008.13
322.00;1008.81
324.00;1007.07
326.00;1006.56
328.00;1008.80
330.00;1009.91
332.00;1009.57
334.00;1007.66
336.00;1009.65
338.00;1009.56
340.00;1006.81
342.00;1009.23
344.00;1012.67
346.00;1009.45
348.00;1005.90
350.00;1003.23
352.00;1003.71
354.00;1008.02
356.00;1008.49
358.00;1006.45
360.00;1003.88
362.00;1006.99
364.00;1008.05
366.00;1005.74
368.00;1002.75
370.00;1005.34
372.00;1002.87
374.00;1001.75
376.00;1002.99
378.00;1008.39
380.00;1008.17
382.00;1010.27
384.00;1016.75
386.00;1015.58
388.00;1010.59
390.00;1008.81
392.00;1011.00
394.00;1006.11
396.00;1012.86
398.00;1010.90
400.00;1006.63
402.00;1014.43
404.00;1014.71
406.00;1019.95
408.00;1020.26
410.00;1018.92
412.00;1020.35
414.00;1023.34
416.00;1027.74
418.00;1027.84
420.00;1028.91
422.00;1029.66
424.00;1037.03
426.00;1040.89
428.00;1037.41
430.00;1035.23
432.00;1036.09
434.00;1033.59
436.00;1035.44
438.00;1036.39
440.00;1043.10
442.00;1036.18
444.00;1034.05
446.00;1034.75
448.00;1035.63
450.00;1033.79
452.00;1031.59
454.00;1029.74
456.00;1025.98
458.00;1024.77
460.00;1027.97
462.00;1028.80
464.00;1030.88
466.00;1026.07
468.00;1024.88
470.00;1019.87
472.00;1016.47
474.00;1012.41
476.00;1011.73
478.00;1008.14
480.00;1008.11
482.00;1008.26
484.00;1012.24
486.00;1010.67
488.00;1008.85
490.00;1016.91
492.00;1014.43
494.00;1011.63
496.00;1010.92
498.00;1012.24
500.00;1008.83
502.00;1007.73
504.00;1010.63
506.00;1015.08
508.00;1012.22
510.00;1012.97
512.00;1012.87
514.00;1012.01
516.00;1012.81
518.00;1015.12
520.00;1018.80
522.00;1020.20
524.00;1022.30
526.00;1022.33
528.00;1021.73
530.00;1024.13
532.00;1024.82
534.00;1025.13
536.00;1019.40
538.00;1021.55
540.00;1025.30
542.00;1024.29
544.00;1023.76
546.00;1019.66
548.00;1022.15
550.00;1021.10
552.00;1025.38
554.00;1021.31
556.00;1024.48
558.00;1026.90
560.00;1026.00
562.00;1026.12
564.00;1026.12
566.00;1025.50
568.00;1034.11
570.00;1035.99
572.00;1036.60
574.00;1040.83
576.00;1043.40
578.00;1039.69
580.00;1040.63
582.00;1047.24
584.00;1038.92
586.00;1044.98
588.00;1044.21
590.00;1040.60
592.00;1041.58
594.00;1040.27
596.00;1041.36
598.00;1039.31
600.00;1035.03
602.00;1033.25
604.00;1029.18
606.00;1026.70
608.00;1024.74
610.00;1029.44
612.00;1028.19
614.00;1026.89
616.00;1024.19
618.00;1023.61
620.00;1023.22
622.00;1020.25
624.00;1015.88
626.00;1014.78
628.00;1013.87
630.00;1013.76
632.00;1007.54
634.00;1009.69
636.00;1010.60
638.00;1010.45
640.00;1009.10
642.00;1010.32
644.00;1011.47
646.00;1007.49
648.00;999.83
650.00;1007.77
652.00;1008.05
654.00;1003.96
656.00;1004.19
658.00;1009.12
660.00;1007.45
662.00;1005.65
664.00;1004.73
666.00;999.18
668.00;1001.89
670.00;1007.35
672.00;1002.00
674.00;1004.99
676.00;1004.61
678.00;1001.17
680.00;999.28
682.00;1002.07
684.00;996.79
686.00;1004.16
688.00;1009.95
690.00;997.22
692.00;1000.34
694.00;1001.83
696.00;1004.61
698.00;1006.01
700.00;1003.32
702.00;1000.35
704.00;996.87
706.00;998.77
708.00;998.90
710.00;1000.68
712.00;1000.18
714.00;996.17
716.00;995.45
718.00;993.04
720.00;993.16
722.00;1001.37
724.00;994.74
726.00;995.04
728.00;998.41
730.00;995.54
732.00;999.17
734.00;998.49
736.00;991.74
738.00;992.86
740.00;987.48
742.00;989.66
744.00;991.38
746.00;988.20
748.00;994.47
750.00;991.14
752.00;991.32
754.00;991.00
756.00;988.47
758.00;995.47
760.00;992.52
762.00;991.52
764.00;994.12
766.00;989.87
768.00;987.20
770.00;981.59
772.00;988.06
774.00;985.67
776.00;985.89
778.00;986.86
780.00;983.33
782.00;979.33
784.00;983.44
786.00;982.66
788.00;981.94
790.00;983.23
792.00;982.64
794.00;979.84
796.00;983.28
798.00;983.72
800.00;978.56
802.00;976.21
804.00;980.51
806.00;983.35
808.00;988.19
810.00;983.89
812.00;989.20
814.00;995.17
816.00;990.87
818.00;992.51
820.00;984.61
822.00;981.64
824.00;985.73
826.00;983.40
828.00;980.26
830.00;983.96
832.00;984.85
834.00;981.43
836.00;983.79
838.00;983.88
840.00;983.35
842.00;981.55
844.00;984.60
846.00;992.94
848.00;994.48
850.00;994.84
852.00;996.58
854.00;992.64
856.00;996.33
858.00;986.98
860.00;992.73
862.00;985.49
864.00;981.05
866.00;983.49
868.00;985.66
870.00;988.74
872.00;986.45
874.00;987.18
876.00;986.40
878.00;981.91
880.00;978.83
882.00;980.52
884.00;984.79
886.00;985.56
888.00;986.65
890.00;983.04
892.00;984.29
894.00;983.46
896.00;980.58
898.00;982.68
900.00;977.50
902.00;977.88
904.00;969.99
906.00;973.29
908.00;974.49
910.00;971.95
912.00;973.86
914.00;979.50
916.00;981.23
918.00;987.87
920.00;987.20
922.00;988.61
924.00;992.48
926.00;985.75
928.00;983.08
930.00;989.85
932.00;994.03
934.00;998.23
936.00;1004.71
938.00;1009.54
940.00;1016.50
942.00;1031.83
944.00;1037.30
946.00;1047.30
948.00;1063.39
950.00;1088.21
952.00;1115.37
954.00;1142.28
956.00;1172.03
958.00;1186.15
960.00;1197.05
962.00;1184.35
964.00;1167.81
966.00;1133.21
968.00;1097.17
970.00;1066.02
972.00;1041.36
974.00;1020.41
976.00;995.61
978.00;986.97
980.00;979.57
982.00;967.83
984.00;965.68
986.00;965.67
988.00;958.59
990.00;958.22
992.00;958.02
994.00;954.63
996.00;957.21
998.00;965.56
1000.00;964.73
1002.00;961.64
1004.00;962.47
1006.00;959.47
1008.00;964.18
1010.00;956.77
1012.00;953.16
1014.00;951.72
1016.00;955.98
1018.00;958.28
1020.00;963.05
1022.00;969.00
1024.00;963.11
1026.00;956.04
1028.00;954.36
1030.00;960.63
1032.00;958.07
1034.00;962.43
1036.00;963.52
1038.00;960.90
1040.00;959.47
1042.00;961.29
1044.00;964.20
1046.00;961.90
1048.00;967.13
1050.00;962.77
1052.00;952.54
1054.00;958.45
1056.00;961.90
1058.00;961.45
1060.00;963.31
1062.00;963.59
1064.00;967.01
1066.00;973.42
1068.00;970.92
1070.00;966.50
1072.00;970.11
1074.00;974.83
1076.00;968.24
1078.00;964.11
1080.00;957.21
1082.00;949.43
1084.00;946.48
1086.00;947.24
1088.00;944.71
1090.00;947.94
1092.00;935.57
1094.00;931.60
1096.00;932.67
1098.00;926.48
1100.00;926.37
1102.00;927.41
1104.00;927.59
1106.00;923.44
1108.00;924.10
1110.00;927.12
1112.00;925.00
1114.00;920.40
1116.00;913.14
1118.00;911.97
1120.00;910.18
1122.00;906.47
1124.00;908.33
1126.00;907.82
1128.00;911.77
1130.00;911.69
1132.00;911.16
1134.00;910.25
1136.00;906.80
1138.00;904.81
1140.00;907.95
1142.00;903.18
1144.00;898.82
1146.00;905.73
1148.00;903.40
1150.00;901.25
1152.00;899.30
1154.00;904.02
1156.00;899.26
1158.00;903.00
1160.00;902.10
1162.00;902.52
1164.00;900.05
1166.00;901.20
1168.00;900.74
1170.00;903.85
1172.00;896.64
1174.00;894.87
1176.00;900.79
1178.00;899.78
1180.00;901.78
1182.00;900.60
1184.00;898.38
1186.00;897.27
1188.00;896.35
1190.00;895.46
1192.00;903.03
1194.00;902.06
1196.00;899.13
1198.00;892.05
1200.00;896.21
1202.00;894.08
1204.00;897.22
1206.00;898.71
1208.00;895.62
1210.00;896.53
1212.00;894.40
1214.00;894.39
1216.00;897.05
1218.00;891.27
1220.00;894.84
1222.00;898.45
1224.00;892.67
1226.00;892.30
1228.00;895.19
1230.00;898.97
1232.00;898.38
1234.00;903.37
1236.00;902.99
1238.00;909.30
1240.00;908.82
1242.00;908.73
1244.00;911.14
1246.00;906.02
1248.00;907.00
1250.00;904.62
1252.00;903.56
1254.00;899.17
1256.00;899.25
1258.00;894.79
1260.00;891.23
1262.00;897.24
1264.00;893.01
1266.00;902.70
1268.00;900.22
1270.00;902.72
1272.00;893.59
1274.00;891.79
1276.00;893.56
1278.00;899.96
1280.00;895.02
1282.00;890.61
1284.00;885.97
1286.00;883.39
1288.00;878.60
1290.00;881.50
1292.00;879.31
1294.00;880.88
1296.00;877.41
1298.00;878.79
1300.00;881.15
1302.00;875.40
1304.00;874.52
1306.00;871.67
1308.00;874.43
1310.00;874.70
1312.00;873.95
1314.00;871.59
1316.00;874.47
1318.00;875.91
1320.00;877.93
1322.00;869.01
1324.00;878.75
1326.00;872.98
1328.00;874.64
1330.00;871.84
1332.00;866.84
1334.00;861.70
1336.00;866.43
1338.00;869.82
1340.00;873.71
1342.00;863.25
1344.00;866.92
1346.00;873.69
1348.00;867.36
1350.00;864.91
1352.00;866.05
1354.00;865.00
1356.00;863.37
1358.00;866.40
1360.00;860.98
1362.00;862.51
1364.00;858.71
1366.00;859.89
1368.00;864.23
1370.00;860.92
1372.00;864.35
1374.00;865.17
1376.00;863.77
1378.00;856.89
1380.00;855.72
1382.00;860.09
1384.00;862.68
1386.00;863.77
1388.00;855.96
1390.00;855.93
1392.00;864.30
1394.00;863.15
1396.00;855.37
1398.00;854.99
1400.00;860.68
1402.00;855.67
1404.00;858.97
1406.00;856.17
1408.00;850.99
1410.00;848.98
1412.00;853.79
1414.00;846.30
1416.00;855.46
1418.00;852.24
1420.00;859.63
1422.00;852.25
1424.00;852.92
1426.00;849.35
1428.00;845.66
1430.00;851.39
1432.00;854.11
1434.00;854.75
1436.00;849.88
1438.00;853.78
1440.00;856.42
1442.00;861.34
1444.00;858.41
1446.00;861.05
1448.00;865.09
1450.00;867.45
1452.00;865.26
1454.00;864.92
1456.00;855.05
1458.00;858.91
1460.00;855.63
1462.00;852.78
1464.00;842.82
1466.00;845.76
1468.00;851.56
1470.00;835.42
1472.00;833.36
1474.00;836.34
1476.00;827.35
1478.00;828.63
1480.00;828.34
1482.00;822.25
1484.00;820.07
1486.00;813.67
1488.00;814.40
1490.00;808.30
1492.00;814.78
1494.00;807.44
1496.00;807.98
1498.00;811.45
1500.00;811.81
1502.00;809.47
1504.00;802.35
1506.00;806.51
1508.00;804.53
1510.00;801.19
1512.00;801.60
1514.00;806.49
1516.00;808.86
1518.00;805.48
1520.00;800.37
1522.00;804.07
1524.00;800.80
1526.00;803.81
1528.00;802.61
1530.00;796.19
1532.00;798.44
1534.00;801.93
1536.00;791.00
1538.00;792.07
1540.00;798.01
1542.00;787.41
1544.00;786.46
1546.00;783.42
1548.00;791.98
1550.00;788.82
1552.00;787.50
1554.00;784.53
1556.00;784.41
1558.00;790.01
1560.00;783.95
1562.00;785.38
1564.00;783.15
1566.00;781.82
1568.00;786.06
1570.00;773.58
1572.00;780.91
1574.00;785.67
1576.00;780.62
1578.00;787.53
1580.00;784.29
1582.00;788.30
1584.00;783.42
1586.00;788.29
1588.00;781.32
1590.00;784.64
1592.00;782.27
1594.00;776.01
1596.00;771.59
1598.00;782.85
1600.00;782.93
1602.00;790.12
1604.00;776.60
1606.00;785.06
1608.00;777.86
1610.00;778.07
1612.00;780.13
1614.00;782.64
1616.00;775.58
1618.00;781.93
1620.00;784.73
1622.00;779.97
1624.00;784.69
1626.00;779.31
1628.00;778.99
1630.00;782.81
1632.00;779.81
1634.00;778.55
1636.00;780.62
1638.00;779.37
1640.00;783.01
1642.00;779.32
1644.00;779.15
1646.00;779.69
1648.00;778.53
1650.00;777.60
1652.00;775.38
1654.00;776.24
1656.00;775.43
1658.00;777.04
1660.00;778.75
1662.00;771.06
1664.00;775.77
1666.00;770.56
1668.00;774.45
1670.00;773.81
1672.00;778.18
1674.00;767.00
1676.00;764.90
1678.00;770.36
1680.00;765.24
1682.00;769.12
1684.00;761.78
1686.00;761.05
1688.00;749.14
1690.00;749.67
1692.00;744.63
1694.00;745.47
1696.00;754.07
1698.00;743.25
1700.00;731.49
1702.00;731.38
1704.00;741.16
1706.00;730.76
1708.00;734.40
1710.00;734.67
1712.00;731.06
1714.00;737.15
1716.00;731.57
1718.00;724.07
1720.00;717.30
1722.00;716.48
1724.00;715.16
1726.00;711.85
1728.00;720.76
1730.00;719.62
1732.00;709.29
1734.00;711.73
1736.00;719.41
1738.00;705.21
1740.00;701.29
1742.00;710.09
1744.00;710.00
1746.00;703.38
1748.00;699.97
1750.00;706.73
1752.00;705.78
1754.00;705.26
1756.00;699.19
1758.00;710.70
1760.00;701.62
1762.00;702.78
1764.00;695.20
1766.00;694.79
1768.00;699.90
1770.00;696.98
1772.00;706.68
1774.00;694.60
1776.00;693.58
1778.00;691.28
1780.00;700.33
1782.00;706.64
1784.00;700.19
1786.00;695.08
1788.00;686.70
1790.00;697.06
1792.00;687.63
1794.00;687.28
1796.00;694.10
1798.00;691.24
1800.00;686.90
1802.00;686.46
1804.00;683.46
1806.00;685.84
1808.00;678.30
1810.00;680.05
1812.00;679.61
1814.00;675.31
1816.00;684.30
1818.00;681.10
1820.00;674.25
1822.00;663.52
1824.00;673.38
1826.00;667.27
1828.00;669.16
1830.00;672.39
1832.00;674.22
1834.00;680.54
1836.00;661.60
1838.00;671.46
1840.00;664.53
1842.00;669.38
1844.00;665.61
1846.00;661.19
1848.00;659.18
1850.00;658.09
1852.00;661.03
1854.00;653.59
1856.00;659.74
1858.00;653.59
1860.00;661.09
1862.00;656.95
1864.00;656.23
1866.00;659.07
1868.00;649.01
1870.00;660.82
1872.00;658.18
1874.00;648.59
1876.00;654.31
1878.00;656.16
1880.00;649.68
1882.00;655.35
1884.00;652.69
1886.00;654.06
1888.00;650.82
1890.00;649.87
1892.00;644.73
1894.00;640.32
1896.00;640.87
1898.00;640.63
1900.00;646.65
1902.00;639.27
1904.00;630.11
1906.00;640.47
1908.00;642.72
1910.00;636.03
1912.00;634.65
1914.00;638.20
1916.00;639.84
1918.00;634.27
1920.00;627.03
1922.00;631.31
1924.00;631.75
1926.00;638.13
1928.00;630.89
1930.00;624.01
1932.00;634.24
1934.00;626.82
1936.00;628.70
1938.00;623.84
1940.00;621.08
1942.00;627.81
1944.00;615.52
1946.00;618.47
1948.00;620.21
1950.00;616.91
1952.00;623.09
1954.00;617.02
1956.00;619.24
1958.00;620.30
1960.00;609.45
1962.00;605.44
1964.00;607.24
1966.00;613.55
1968.00;610.04
1970.00;610.31
1972.00;604.52
1974.00;618.36
1976.00;608.05
1978.00;613.68
1980.00;613.81
1982.00;603.31
1984.00;602.77
1986.00;605.25
1988.00;600.50
1990.00;599.23
1992.00;597.44
1994.00;599.71
1996.00;596.81
1998.00;599.44
2000.00;595.73
2002.00;602.81
2004.00;594.81
2006.00;598.93
2008.00;604.38
2010.00;596.73
2012.00;593.21
2014.00;594.76
2016.00;590.16
2018.00;603.05
2020.00;576.63
2022.00;587.80
2024.00;595.44
2026.00;601.15
2028.00;586.09
2030.00;588.15
2032.00;579.46
2034.00;579.31
2036.00;579.90
2038.00;598.18
2040.00;580.30
2042.00;583.71
2044.00;589.37
2046.00;585.38
2048.00;589.07
2050.00;584.85
2052.00;574.21
2054.00;589.24
2056.00;569.57
2058.00;580.47
2060.00;586.67
2062.00;576.80
2064.00;567.98
2066.00;578.33
2068.00;576.39
2070.00;570.72
2072.00;571.24
2074.00;564.19
2076.00;571.89
2078.00;573.69
2080.00;570.45
2082.00;573.16
2084.00;580.62
2086.00;568.86
2088.00;582.32
2090.00;571.15
2092.00;567.12
2094.00;561.69
2096.00;567.04
2098.00;561.16
2100.00;566.62
2102.00;555.57
2104.00;573.90
2106.00;561.61
2108.00;563.42
2110.00;559.14
2112.00;554.24
2114.00;558.93
2116.00;551.65
2118.00;556.10
2120.00;545.18
2122.00;559.67
2124.00;547.71
2126.00;553.07
2128.00;554.62
2130.00;549.94
2132.00;539.70
2134.00;548.35
2136.00;542.17
2138.00;553.77
2140.00;550.05
2142.00;554.91
2144.00;540.69
2146.00;560.28
2148.00;546.75
2150.00;541.07
2152.00;550.00
2154.00;537.94
2156.00;545.41
2158.00;553.46
2160.00;536.76
2162.00;527.01
2164.00;541.87
2166.00;549.50
2168.00;540.56
2170.00;536.39
2172.00;535.69
2174.00;541.54
2176.00;533.30
2178.00;536.61
2180.00;542.33
2182.00;535.92
2184.00;545.79
2186.00;532.21
2188.00;525.80
2190.00;527.94
2192.00;522.90
2194.00;532.55
2196.00;533.28
2198.00;536.57
2200.00;517.97
2202.00;539.90
2204.00;528.63
2206.00;536.13
2208.00;537.71
2210.00;536.72
2212.00;534.30
2214.00;540.69
2216.00;534.57
2218.00;529.09
2220.00;528.03
2222.00;535.88
2224.00;537.02
2226.00;532.30
2228.00;522.64
2230.00;502.81
2232.00;519.47
2234.00;507.24
2236.00;516.94
2238.00;512.07
2240.00;518.13
2242.00;522.01
2244.00;514.10
2246.00;507.58
2248.00;506.48
2250.00;506.60
2252.00;517.20
2254.00;506.07
2256.00;506.31
2258.00;520.18
2260.00;504.58
2262.00;511.56
2264.00;499.28
2266.00;507.19
2268.00;509.96
2270.00;505.92
2272.00;515.04
2274.00;517.01
2276.00;517.42
2278.00;508.42
2280.00;513.54
2282.00;498.04
2284.00;499.42
2286.00;506.29
2288.00;505.23
2290.00;499.17
2292.00;508.84
2294.00;513.67
2296.00;503.03
2298.00;497.28
2300.00;486.15
[ANALYSIS RESULT]
Analysis_Type;None
