AP Cora 5001
Software_Version;1.4.1
[SAMPLE]
Sample_Name;Sample1_haversian_1
Method;
[PARAMETERS]
Instrument_Type;Cora 5001
Instrument_SN;99119713
Last_SST;5/23/2024 9:27:06 AM +00:00
User_Name;labmanager
Measurement_Started;5/23/2024 2:42:26 PM
Measurement_Finished;5/23/2024 2:43:27 PM
Measurement_Saved;5/23/2024 2:43:27 PM
Wavelength;785
Laser_Power;30
Auto_Exposure;False
Exposure_Time;10000
Averaged_Spectra;3
Probe_Type;Regular Probe (785 nm)
Probe_SN;99101107
Dark_Background;True
User_Background_Spectrum;
Spike_Removal;True
Baseline_Correction;False
Smoothing;False
Normalization;None
[SPECTRUM QUALITY]
Quality_Saturation;False
Quality_SBR;NaN
Quality_Temperature;False
[SPECTRUM]
100.00;6433.74
102.00;6328.42
104.00;6193.06
106.00;6051.17
108.00;5877.57
110.00;5681.72
112.00;5448.64
114.00;5201.18
116.00;4957.94
118.00;4708.21
120.00;4457.88
122.00;4215.21
124.00;3993.18
126.00;3776.06
128.00;3565.85
130.00;3378.00
132.00;3194.73
134.00;3024.80
136.00;2881.33
138.00;2741.53
140.00;2613.85
142.00;2506.40
144.00;2406.50
146.00;2323.18
148.00;2247.55
150.00;2176.06
152.00;2122.82
154.00;2071.18
156.00;2019.84
158.00;1987.69
160.00;1956.19
162.00;1928.03
164.00;1912.48
166.00;1899.41
168.00;1887.35
170.00;1870.46
172.00;1856.05
174.00;1841.20
176.00;1827.30
178.00;1823.30
180.00;1813.08
182.00;1805.18
184.00;1795.39
186.00;1787.59
188.00;1768.90
190.00;1766.74
192.00;1761.06
194.00;1759.44
196.00;1748.28
198.00;1737.30
200.00;1730.04
202.00;1729.34
204.00;1733.14
206.00;1737.93
208.00;1731.35
210.00;1729.31
212.00;1732.03
214.00;1728.94
216.00;1723.04
218.00;1719.00
220.00;1715.33
222.00;1714.57
224.00;1716.60
226.00;1710.40
228.00;1708.21
230.00;1708.60
232.00;1705.21
234.00;1704.65
236.00;1707.84
238.00;1709.79
240.00;1708.90
242.00;1705.47
244.00;1704.86
246.00;1704.86
248.00;1707.31
250.00;1707.92
252.00;1705.38
254.00;1707.32
256.00;1716.71
258.00;1716.55
260.00;1715.08
262.00;1719.26
264.00;1720.68
266.00;1718.70
268.00;1717.91
270.00;1723.73
272.00;1724.26
274.00;1716.68
276.00;1715.15
278.00;1717.50
280.00;1720.82
282.00;1722.81
284.00;1719.69
286.00;1717.70
288.00;1717.44
290.00;1715.62
292.00;1717.35
294.00;1718.63
296.00;1713.67
298.00;1707.16
300.00;1711.56
302.00;1716.99
304.00;1716.22
306.00;1707.31
308.00;1708.55
310.00;1706.25
312.00;1711.12
314.00;1708.00
316.00;1703.78
318.00;1705.55
320.00;1713.08
322.00;1712.86
324.00;1700.97
326.00;1709.05
328.00;1705.86
330.00;1700.22
332.00;1706.85
334.00;1707.14
336.00;1706.34
338.00;1709.34
340.00;1705.61
342.00;1695.61
344.00;1693.63
346.00;1695.06
348.00;1699.75
350.00;1697.07
352.00;1689.49
354.00;1691.20
356.00;1687.55
358.00;1687.24
360.00;1685.48
362.00;1688.03
364.00;1686.44
366.00;1679.69
368.00;1681.07
370.00;1680.27
372.00;1684.50
374.00;1681.81
376.00;1682.87
378.00;1683.78
380.00;1682.85
382.00;1684.65
384.00;1691.79
386.00;1700.37
388.00;1694.26
390.00;1697.68
392.00;1692.76
394.00;1692.65
396.00;1695.13
398.00;1696.18
400.00;1697.23
402.00;1698.22
404.00;1700.01
406.00;1703.53
408.00;1711.59
410.00;1714.69
412.00;1713.70
414.00;1724.95
416.00;1723.53
418.00;1722.04
420.00;1725.76
422.00;1730.32
424.00;1730.25
426.00;1742.06
428.00;1748.70
430.00;1745.33
432.00;1747.32
434.00;1743.49
436.00;1744.60
438.00;1747.35
440.00;1753.80
442.00;1747.25
444.00;1749.00
446.00;1751.38
448.00;1743.23
450.00;1740.22
452.00;1733.30
454.00;1735.32
456.00;1724.69
458.00;1727.94
460.00;1724.57
462.00;1719.09
464.00;1716.10
466.00;1708.58
468.00;1707.94
470.00;1702.29
472.00;1694.54
474.00;1693.03
476.00;1688.59
478.00;1683.50
480.00;1676.25
482.00;1675.14
484.00;1672.66
486.00;1678.59
488.00;1681.59
490.00;1686.91
492.00;1681.35
494.00;1682.93
496.00;1684.00
498.00;1677.65
500.00;1671.38
502.00;1664.70
504.00;1668.59
506.00;1660.59
508.00;1668.90
510.00;1667.85
512.00;1669.55
514.00;1673.34
516.00;1666.78
518.00;1670.61
520.00;1675.59
522.00;1678.25
524.00;1681.54
526.00;1681.50
528.00;1680.36
530.00;1686.18
532.00;1681.36
534.00;1684.75
536.00;1684.07
538.00;1686.35
540.00;1687.61
542.00;1678.10
544.00;1688.62
546.00;1688.29
548.00;1684.92
550.00;1690.45
552.00;1693.72
554.00;1693.77
556.00;1696.98
558.00;1697.07
560.00;1697.41
562.00;1700.43
564.00;1697.56
566.00;1701.11
568.00;1706.60
570.00;1712.30
572.00;1720.12
574.00;1725.43
576.00;1728.20
578.00;1729.49
580.00;1736.34
582.00;1733.84
584.00;1726.86
586.00;1729.79
588.00;1732.99
590.00;1732.97
592.00;1731.91
594.00;1722.07
596.00;1724.23
598.00;1717.26
600.00;1707.20
602.00;1704.16
604.00;1694.33
606.00;1693.46
608.00;1690.60
610.00;1690.13
612.00;1687.54
614.00;1691.85
616.00;1687.72
618.00;1682.68
620.00;1675.68
622.00;1672.74
624.00;1667.00
626.00;1660.97
628.00;1655.19
630.00;1649.45
632.00;1643.80
634.00;1641.07
636.00;1640.46
638.00;1639.74
640.00;1641.35
642.00;1648.08
644.00;1643.84
646.00;1635.87
648.00;1636.75
650.00;1630.48
652.00;1627.97
654.00;1634.94
656.00;1636.87
658.00;1635.61
660.00;1631.22
662.00;1631.31
664.00;1629.58
666.00;1625.52
668.00;1623.25
670.00;1630.78
672.00;1628.04
674.00;1634.50
676.00;1627.10
678.00;1622.52
680.00;1620.77
682.00;1625.18
684.00;1632.94
686.00;1626.64
688.00;1627.88
690.00;1623.56
692.00;1624.21
694.00;1617.08
696.00;1619.45
698.00;1621.61
700.00;1624.44
702.00;1621.79
704.00;1619.27
706.00;1622.30
708.00;1613.74
710.00;1616.20
712.00;1616.77
714.00;1616.85
716.00;1618.84
718.00;1620.85
720.00;1615.56
722.00;1618.37
724.00;1617.65
726.00;1609.55
728.00;1611.85
730.00;1613.54
732.00;1612.72
734.00;1607.92
736.00;1614.81
738.00;1608.96
740.00;1608.29
742.00;1607.69
744.00;1599.86
746.00;1595.39
748.00;1598.05
750.00;1599.29
752.00;1605.69
754.00;1598.45
756.00;1597.58
758.00;1592.90
760.00;1593.47
762.00;1599.72
764.00;1594.31
766.00;1595.94
768.00;1595.10
770.00;1593.18
772.00;1590.21
774.00;1590.27
776.00;1594.63
778.00;1591.68
780.00;1591.03
782.00;1588.31
784.00;1586.96
786.00;1586.82
788.00;1586.39
790.00;1584.35
792.00;1582.89
794.00;1577.44
796.00;1574.17
798.00;1582.56
800.00;1582.58
802.00;1578.46
804.00;1581.58
806.00;1591.10
808.00;1598.65
810.00;1597.48
812.00;1600.77
814.00;1607.34
816.00;1605.41
818.00;1599.27
820.00;1591.07
822.00;1587.40
824.00;1585.12
826.00;1585.64
828.00;1590.74
830.00;1591.25
832.00;1589.13
834.00;1592.50
836.00;1585.29
838.00;1578.33
840.00;1578.73
842.00;1584.90
844.00;1595.02
846.00;1599.99
848.00;1615.75
850.00;1616.84
852.00;1608.86
854.00;1603.55
856.00;1605.73
858.00;1596.57
860.00;1605.30
862.00;1601.83
864.00;1595.31
866.00;1591.08
868.00;1600.60
870.00;1599.34
872.00;1597.65
874.00;1600.91
876.00;1598.45
878.00;1599.73
880.00;1592.97
882.00;1593.89
884.00;1594.73
886.00;1591.55
888.00;1586.97
890.00;1581.22
892.00;1589.02
894.00;1583.92
896.00;1584.46
898.00;1578.59
900.00;1573.19
902.00;1577.11
904.00;1574.87
906.00;1571.21
908.00;1566.39
910.00;1568.54
912.00;1578.54
914.00;1594.11
916.00;1601.61
918.00;1603.83
920.00;1612.01
922.00;1606.09
924.00;1612.02
926.00;1612.57
928.00;1604.66
930.00;1615.14
932.00;1616.88
934.00;1635.47
936.00;1649.84
938.00;1673.60
940.00;1687.71
942.00;1708.49
944.00;1742.61
946.00;1767.73
948.00;1822.13
950.00;1888.91
952.00;1968.38
954.00;2050.88
956.00;2121.38
958.00;2183.81
960.00;2197.66
962.00;2176.66
964.00;2118.56
966.00;2020.24
968.00;1923.90
970.00;1840.62
972.00;1761.50
974.00;1699.71
976.00;1652.09
978.00;1617.90
980.00;1590.85
982.00;1571.31
984.00;1563.89
986.00;1557.22
988.00;1554.26
990.00;1550.28
992.00;1545.32
994.00;1543.52
996.00;1540.42
998.00;1549.38
1000.00;1545.73
1002.00;1561.01
1004.00;1564.99
1006.00;1556.47
1008.00;1552.04
1010.00;1547.23
1012.00;1541.60
1014.00;1544.14
1016.00;1551.13
1018.00;1549.24
1020.00;1550.36
1022.00;1547.74
1024.00;1541.70
1026.00;1547.58
1028.00;1552.54
1030.00;1559.94
1032.00;1553.38
1034.00;1554.78
1036.00;1551.23
1038.00;1555.44
1040.00;1548.17
1042.00;1550.92
1044.00;1551.28
1046.00;1552.00
1048.00;1556.76
1050.00;1552.78
1052.00;1553.41
1054.00;1547.62
1056.00;1553.16
1058.00;1559.24
1060.00;1565.00
1062.00;1573.30
1064.00;1577.85
1066.00;1589.50
1068.00;1598.33
1070.00;1600.13
1072.00;1599.59
1074.00;1598.56
1076.00;1589.74
1078.00;1571.00
1080.00;1563.83
1082.00;1550.58
1084.00;1529.85
1086.00;1522.44
1088.00;1514.75
1090.00;1518.47
1092.00;1504.33
1094.00;1508.76
1096.00;1498.03
1098.00;1497.66
1100.00;1490.02
1102.00;1491.81
1104.00;1493.36
1106.00;1481.34
1108.00;1481.67
1110.00;1475.27
1112.00;1472.45
1114.00;1472.50
1116.00;1463.44
1118.00;1459.84
1120.00;1458.61
1122.00;1445.16
1124.00;1451.40
1126.00;1452.83
1128.00;1449.66
1130.00;1450.23
1132.00;1446.19
1134.00;1441.10
1136.00;1439.38
1138.00;1437.38
1140.00;1443.49
1142.00;1435.88
1144.00;1432.98
1146.00;1433.28
1148.00;1434.56
1150.00;1429.18
1152.00;1433.33
1154.00;1437.78
1156.00;1442.30
1158.00;1438.35
1160.00;1440.26
1162.00;1436.90
1164.00;1438.63
1166.00;1432.33
1168.00;1437.50
1170.00;1430.69
1172.00;1430.75
1174.00;1434.17
1176.00;1427.14
1178.00;1427.83
1180.00;1429.49
1182.00;1428.50
1184.00;1428.95
1186.00;1426.57
1188.00;1420.84
1190.00;1424.73
1192.00;1424.06
1194.00;1419.33
1196.00;1423.92
1198.00;1432.59
1200.00;1427.63
1202.00;1424.34
1204.00;1430.13
1206.00;1432.70
1208.00;1429.74
1210.00;1424.81
1212.00;1423.87
1214.00;1423.29
1216.00;1426.77
1218.00;1422.76
1220.00;1416.41
1222.00;1426.44
1224.00;1421.90
1226.00;1430.80
1228.00;1427.22
1230.00;1431.57
1232.00;1431.06
1234.00;1442.97
1236.00;1451.58
1238.00;1460.26
1240.00;1459.84
1242.00;1458.80
1244.00;1454.63
1246.00;1456.66
1248.00;1458.75
1250.00;1450.26
1252.00;1445.56
1254.00;1443.90
1256.00;1442.56
1258.00;1439.97
1260.00;1437.49
1262.00;1450.79
1264.00;1452.27
1266.00;1449.58
1268.00;1438.30
1270.00;1440.83
1272.00;1439.29
1274.00;1442.15
1276.00;1438.81
1278.00;1436.20
1280.00;1425.27
1282.00;1414.90
1284.00;1417.17
1286.00;1417.96
1288.00;1416.81
1290.00;1410.56
1292.00;1410.11
1294.00;1409.25
1296.00;1403.61
1298.00;1401.55
1300.00;1401.25
1302.00;1397.29
1304.00;1407.22
1306.00;1399.66
1308.00;1395.65
1310.00;1392.09
1312.00;1401.62
1314.00;1400.91
1316.00;1384.90
1318.00;1397.64
1320.00;1389.56
1322.00;1387.60
1324.00;1385.30
1326.00;1387.47
1328.00;1384.55
1330.00;1390.60
1332.00;1390.87
1334.00;1384.70
1336.00;1376.98
1338.00;1381.73
1340.00;1389.73
1342.00;1380.74
1344.00;1386.99
1346.00;1386.53
1348.00;1376.03
1350.00;1371.24
1352.00;1381.24
1354.00;1374.43
1356.00;1368.65
1358.00;1366.40
1360.00;1363.22
1362.00;1363.11
1364.00;1358.33
1366.00;1364.91
1368.00;1368.94
1370.00;1368.24
1372.00;1371.92
1374.00;1376.94
1376.00;1368.72
1378.00;1369.37
1380.00;1371.93
1382.00;1370.39
1384.00;1372.30
1386.00;1371.45
1388.00;1369.98
1390.00;1365.28
1392.00;1366.48
1394.00;1371.18
1396.00;1371.96
1398.00;1368.33
1400.00;1369.85
1402.00;1368.09
1404.00;1361.44
1406.00;1360.14
1408.00;1359.08
1410.00;1358.98
1412.00;1354.98
1414.00;1369.12
1416.00;1358.38
1418.00;1363.55
1420.00;1371.51
1422.00;1369.63
1424.00;1372.18
1426.00;1366.76
1428.00;1366.21
1430.00;1364.14
1432.00;1365.51
1434.00;1368.66
1436.00;1369.67
1438.00;1373.01
1440.00;1381.77
1442.00;1392.73
1444.00;1400.25
1446.00;1405.06
1448.00;1401.07
1450.00;1407.88
1452.00;1405.96
1454.00;1408.99
1456.00;1390.13
1458.00;1389.01
1460.00;1386.23
1462.00;1390.03
1464.00;1376.25
1466.00;1368.60
1468.00;1362.75
1470.00;1350.61
1472.00;1339.79
1474.00;1339.39
1476.00;1330.26
1478.00;1316.04
1480.00;1319.31
1482.00;1306.91
1484.00;1304.16
1486.00;1293.49
1488.00;1296.89
1490.00;1290.09
1492.00;1294.42
1494.00;1285.88
1496.00;1287.70
1498.00;1289.34
1500.00;1283.96
1502.00;1280.83
1504.00;1271.13
1506.00;1278.72
1508.00;1272.91
1510.00;1273.74
1512.00;1261.83
1514.00;1269.25
1516.00;1266.60
1518.00;1266.47
1520.00;1271.68
1522.00;1265.27
1524.00;1257.06
1526.00;1262.49
1528.00;1272.32
1530.00;1266.43
1532.00;1260.80
1534.00;1261.61
1536.00;1260.29
1538.00;1255.77
1540.00;1247.28
1542.00;1261.60
1544.00;1260.06
1546.00;1253.22
1548.00;1242.19
1550.00;1242.62
1552.00;1246.34
1554.00;1247.22
1556.00;1246.17
1558.00;1246.26
1560.00;1249.96
1562.00;1243.71
1564.00;1249.96
1566.00;1247.91
1568.00;1244.56
1570.00;1246.92
1572.00;1236.60
1574.00;1240.15
1576.00;1242.29
1578.00;1242.60
1580.00;1246.00
1582.00;1240.52
1584.00;1244.15
1586.00;1233.33
1588.00;1244.39
1590.00;1245.27
1592.00;1246.64
1594.00;1242.52
1596.00;1243.06
1598.00;1246.99
1600.00;1238.73
1602.00;1241.23
1604.00;1227.18
1606.00;1247.70
1608.00;1244.78
1610.00;1243.46
1612.00;1240.57
1614.00;1236.62
1616.00;1240.85
1618.00;1231.44
1620.00;1238.17
1622.00;1232.66
1624.00;1241.56
1626.00;1252.12
1628.00;1250.39
1630.00;1250.97
1632.00;1255.32
1634.00;1257.71
1636.00;1258.63
1638.00;1249.95
1640.00;1256.03
1642.00;1256.22
1644.00;1252.13
1646.00;1271.01
1648.00;1261.19
1650.00;1264.62
1652.00;1251.60
1654.00;1250.47
1656.00;1254.72
1658.00;1261.29
1660.00;1262.46
1662.00;1256.15
1664.00;1249.09
1666.00;1256.84
1668.00;1262.71
1670.00;1250.36
1672.00;1247.49
1674.00;1238.54
1676.00;1238.62
1678.00;1243.19
1680.00;1236.08
1682.00;1235.51
1684.00;1225.29
1686.00;1219.19
1688.00;1216.57
1690.00;1207.40
1692.00;1201.04
1694.00;1192.85
1696.00;1204.71
1698.00;1199.60
1700.00;1179.87
1702.00;1177.98
1704.00;1173.34
1706.00;1164.91
1708.00;1158.88
1710.00;1161.74
1712.00;1160.12
1714.00;1153.15
1716.00;1148.99
1718.00;1143.32
1720.00;1139.71
1722.00;1134.06
1724.00;1141.66
1726.00;1140.40
1728.00;1127.85
1730.00;1141.60
1732.00;1133.20
1734.00;1129.74
1736.00;1128.74
1738.00;1108.66
1740.00;1126.19
1742.00;1121.10
1744.00;1125.72
1746.00;1127.36
1748.00;1118.33
1750.00;1116.86
1752.00;1121.72
1754.00;1121.99
1756.00;1117.10
1758.00;1118.69
1760.00;1105.79
1762.00;1110.84
1764.00;1110.30
1766.00;1103.30
1768.00;1101.72
1770.00;1108.04
1772.00;1107.11
1774.00;1104.36
1776.00;1112.42
1778.00;1096.85
1780.00;1099.92
1782.00;1095.78
1784.00;1095.52
1786.00;1101.83
1788.00;1087.87
1790.00;1090.41
1792.00;1080.65
1794.00;1086.52
1796.00;1086.56
1798.00;1079.80
1800.00;1080.86
1802.00;1087.83
1804.00;1078.93
1806.00;1075.16
1808.00;1082.34
1810.00;1069.89
1812.00;1067.76
1814.00;1066.53
1816.00;1074.97
1818.00;1070.73
1820.00;1068.51
1822.00;1062.36
1824.00;1055.12
1826.00;1075.06
1828.00;1067.26
1830.00;1066.26
1832.00;1059.16
1834.00;1061.30
1836.00;1050.20
1838.00;1055.12
1840.00;1053.64
1842.00;1048.77
1844.00;1051.43
1846.00;1056.06
1848.00;1051.00
1850.00;1053.70
1852.00;1046.09
1854.00;1046.47
1856.00;1038.60
1858.00;1037.10
1860.00;1044.23
1862.00;1036.74
1864.00;1035.71
1866.00;1029.07
1868.00;1019.29
1870.00;1023.91
1872.00;1026.76
1874.00;1026.28
1876.00;1030.16
1878.00;1022.41
1880.00;1020.89
1882.00;1012.84
1884.00;1016.35
1886.00;1012.09
1888.00;1014.43
1890.00;1020.77
1892.00;1021.17
1894.00;1012.57
1896.00;1027.97
1898.00;1018.44
1900.00;1013.66
1902.00;1003.27
1904.00;1007.22
1906.00;998.61
1908.00;1012.06
1910.00;1000.06
1912.00;1007.96
1914.00;1008.98
1916.00;1008.52
1918.00;1002.88
1920.00;998.21
1922.00;998.59
1924.00;996.94
1926.00;996.73
1928.00;1003.26
1930.00;995.54
1932.00;985.86
1934.00;981.25
1936.00;992.14
1938.00;980.27
1940.00;982.79
1942.00;979.55
1944.00;981.97
1946.00;976.92
1948.00;988.12
1950.00;985.05
1952.00;960.41
1954.00;967.01
1956.00;969.20
1958.00;974.76
1960.00;965.83
1962.00;967.76
1964.00;979.12
1966.00;973.47
1968.00;962.45
1970.00;970.44
1972.00;957.43
1974.00;950.25
1976.00;947.08
1978.00;957.57
1980.00;955.78
1982.00;954.64
1984.00;964.31
1986.00;949.92
1988.00;951.03
1990.00;946.75
1992.00;956.78
1994.00;952.99
1996.00;938.72
1998.00;949.94
2000.00;948.45
2002.00;938.11
2004.00;934.86
2006.00;943.28
2008.00;942.30
2010.00;943.31
2012.00;940.84
2014.00;930.75
2016.00;929.30
2018.00;927.80
2020.00;944.62
2022.00;938.38
2024.00;943.45
2026.00;928.31
2028.00;928.19
2030.00;935.11
2032.00;930.04
2034.00;918.74
2036.00;917.70
2038.00;924.73
2040.00;934.09
2042.00;912.13
2044.00;905.17
2046.00;911.25
2048.00;910.41
2050.00;904.33
2052.00;910.10
2054.00;911.92
2056.00;920.89
2058.00;916.23
2060.00;916.17
2062.00;907.54
2064.00;908.89
2066.00;910.37
2068.00;911.86
2070.00;900.22
2072.00;909.37
2074.00;894.53
2076.00;892.67
2078.00;898.34
2080.00;904.02
2082.00;907.52
2084.00;893.33
2086.00;888.40
2088.00;887.09
2090.00;896.80
2092.00;898.60
2094.00;888.48
2096.00;878.56
2098.00;887.03
2100.00;896.35
2102.00;895.49
2104.00;881.31
2106.00;873.27
2108.00;881.82
2110.00;877.17
2112.00;867.27
2114.00;880.43
2116.00;880.51
2118.00;869.20
2120.00;867.81
2122.00;875.07
2124.00;884.47
2126.00;872.39
2128.00;869.51
2130.00;852.39
2132.00;863.58
2134.00;853.37
2136.00;863.30
2138.00;857.09
2140.00;861.00
2142.00;857.62
2144.00;867.59
2146.00;850.67
2148.00;863.04
2150.00;852.72
2152.00;837.44
2154.00;860.48
2156.00;848.06
2158.00;853.44
2160.00;845.16
2162.00;851.80
2164.00;859.77
2166.00;846.78
2168.00;851.75
2170.00;846.80
2172.00;847.06
2174.00;848.40
2176.00;839.81
2178.00;857.79
2180.00;839.53
2182.00;854.97
2184.00;848.62
2186.00;847.76
2188.00;834.17
2190.00;846.81
2192.00;836.67
2194.00;828.01
2196.00;838.82
2198.00;833.56
2200.00;835.25
2202.00;823.80
2204.00;834.29
2206.00;826.76
2208.00;821.10
2210.00;836.55
2212.00;858.69
2214.00;834.75
2216.00;838.04
2218.00;826.16
2220.00;830.37
2222.00;826.17
2224.00;821.04
2226.00;833.39
2228.00;829.07
2230.00;819.27
2232.00;828.33
2234.00;809.11
2236.00;815.09
2238.00;811.79
2240.00;812.76
2242.00;804.41
2244.00;811.94
2246.00;790.63
2248.00;819.63
2250.00;797.38
2252.00;809.35
2254.00;813.35
2256.00;808.33
2258.00;797.49
2260.00;805.57
2262.00;807.97
2264.00;787.10
2266.00;812.97
2268.00;803.11
2270.00;809.46
2272.00;801.91
2274.00;793.84
2276.00;807.93
2278.00;807.28
2280.00;804.94
2282.00;782.67
2284.00;819.06
2286.00;799.99
2288.00;791.72
2290.00;775.35
2292.00;784.08
2294.00;780.08
2296.00;795.80
2298.00;804.82
2300.00;781.75
[ANALYSIS RESULT]
Analysis_Type;None
