AP Cora 5001
Software_Version;1.4.1
[SAMPLE]
Sample_Name;Quartz
Method;
[PARAMETERS]
Instrument_Type;Cora 5001
Instrument_SN;99119713
Last_SST;4/23/2024 1:36:37 PM +00:00
User_Name;labmanager
Measurement_Started;4/25/2024 1:46:34 PM
Measurement_Finished;4/25/2024 1:46:53 PM
Measurement_Saved;4/25/2024 1:46:53 PM
Wavelength;785
Laser_Power;10
Auto_Exposure;False
Exposure_Time;3000
Averaged_Spectra;3
Probe_Type;Regular Probe (785 nm)
Probe_SN;99101107
Dark_Background;True
User_Background_Spectrum;
Spike_Removal;True
Baseline_Correction;False
Smoothing;False
Normalization;None
[SPECTRUM QUALITY]
Quality_Saturation;False
Quality_SBR;NaN
Quality_Temperature;False
[SPECTRUM]
100.00;366.43
102.00;359.68
104.00;356.22
106.00;347.35
108.00;340.14
110.00;330.72
112.00;318.60
114.00;306.05
116.00;297.56
118.00;289.31
120.00;278.84
122.00;273.02
124.00;255.90
126.00;250.57
128.00;243.52
130.00;230.14
132.00;213.65
134.00;197.75
136.00;181.90
138.00;167.98
140.00;154.84
142.00;139.96
144.00;129.96
146.00;117.21
148.00;110.14
150.00;103.27
152.00;99.11
154.00;88.07
156.00;82.90
158.00;78.29
160.00;74.98
162.00;71.52
164.00;69.28
166.00;71.94
168.00;66.09
170.00;66.65
172.00;69.84
174.00;68.60
176.00;73.07
178.00;78.38
180.00;83.79
182.00;89.78
184.00;95.51
186.00;104.56
188.00;113.71
190.00;125.02
192.00;136.95
194.00;148.19
196.00;160.40
198.00;172.04
200.00;184.02
202.00;200.41
204.00;209.90
206.00;214.94
208.00;218.48
210.00;219.86
212.00;218.82
214.00;212.44
216.00;208.46
218.00;199.96
220.00;188.25
222.00;179.50
224.00;169.99
226.00;160.77
228.00;149.67
230.00;141.65
232.00;131.40
234.00;119.97
236.00;114.06
238.00;104.94
240.00;96.18
242.00;90.66
244.00;82.60
246.00;78.98
248.00;72.58
250.00;66.78
252.00;64.51
254.00;62.28
256.00;62.48
258.00;60.30
260.00;59.60
262.00;62.31
264.00;59.50
266.00;56.42
268.00;56.66
270.00;51.05
272.00;45.20
274.00;42.74
276.00;41.87
278.00;39.06
280.00;36.03
282.00;37.06
284.00;33.75
286.00;30.44
288.00;30.96
290.00;31.46
292.00;26.31
294.00;26.02
296.00;23.60
298.00;21.87
300.00;22.37
302.00;19.69
304.00;21.16
306.00;19.27
308.00;19.44
310.00;18.87
312.00;20.08
314.00;16.58
316.00;18.86
318.00;17.92
320.00;17.61
322.00;19.73
324.00;21.57
326.00;18.52
328.00;18.55
330.00;19.07
332.00;19.79
334.00;18.45
336.00;17.04
338.00;19.22
340.00;20.34
342.00;19.67
344.00;21.58
346.00;23.17
348.00;26.94
350.00;29.31
352.00;33.08
354.00;37.64
356.00;34.38
358.00;34.05
360.00;32.74
362.00;28.23
364.00;24.92
366.00;26.98
368.00;25.46
370.00;24.67
372.00;25.95
374.00;24.57
376.00;21.13
378.00;21.77
380.00;21.23
382.00;21.42
384.00;22.56
386.00;22.55
388.00;22.79
390.00;27.48
392.00;28.68
394.00;29.42
396.00;30.35
398.00;30.29
400.00;31.94
402.00;32.61
404.00;29.80
406.00;29.27
408.00;30.75
410.00;27.14
412.00;29.08
414.00;26.88
416.00;25.84
418.00;28.39
420.00;30.70
422.00;29.24
424.00;30.33
426.00;30.73
428.00;30.52
430.00;35.15
432.00;34.72
434.00;39.31
436.00;44.38
438.00;52.60
440.00;61.66
442.00;71.68
444.00;87.42
446.00;107.06
448.00;129.87
450.00;157.91
452.00;192.86
454.00;244.48
456.00;308.77
458.00;403.93
460.00;522.67
462.00;634.62
464.00;699.90
466.00;697.50
468.00;634.51
470.00;550.56
472.00;470.35
474.00;407.93
476.00;353.79
478.00;306.87
480.00;267.81
482.00;235.17
484.00;199.16
486.00;166.60
488.00;138.89
490.00;116.98
492.00;98.51
494.00;89.10
496.00;76.10
498.00;67.02
500.00;61.51
502.00;55.52
504.00;51.61
506.00;49.19
508.00;46.72
510.00;43.05
512.00;39.30
514.00;40.67
516.00;36.35
518.00;37.57
520.00;32.43
522.00;31.99
524.00;30.29
526.00;32.55
528.00;32.04
530.00;30.18
532.00;30.87
534.00;28.15
536.00;28.01
538.00;26.18
540.00;23.35
542.00;22.27
544.00;24.77
546.00;23.56
548.00;22.25
550.00;21.29
552.00;21.89
554.00;20.50
556.00;19.57
558.00;19.16
560.00;19.82
562.00;20.74
564.00;18.90
566.00;18.71
568.00;18.95
570.00;15.58
572.00;17.88
574.00;17.08
576.00;16.22
578.00;18.57
580.00;19.02
582.00;16.90
584.00;16.64
586.00;17.49
588.00;18.19
590.00;14.38
592.00;16.47
594.00;17.54
596.00;15.26
598.00;15.15
600.00;16.64
602.00;15.87
604.00;16.86
606.00;14.26
608.00;16.29
610.00;15.09
612.00;14.07
614.00;15.54
616.00;16.41
618.00;16.24
620.00;14.33
622.00;14.83
624.00;15.53
626.00;15.43
628.00;15.51
630.00;14.13
632.00;14.19
634.00;13.81
636.00;14.98
638.00;12.54
640.00;15.36
642.00;12.16
644.00;13.75
646.00;14.86
648.00;12.72
650.00;15.73
652.00;13.04
654.00;15.03
656.00;15.63
658.00;14.44
660.00;15.98
662.00;14.33
664.00;14.00
666.00;14.60
668.00;14.87
670.00;14.88
672.00;14.96
674.00;17.17
676.00;15.98
678.00;15.36
680.00;14.19
682.00;13.72
684.00;15.74
686.00;16.34
688.00;17.18
690.00;17.63
692.00;21.46
694.00;19.39
696.00;22.26
698.00;24.95
700.00;22.38
702.00;20.00
704.00;18.88
706.00;16.48
708.00;19.10
710.00;17.61
712.00;13.85
714.00;15.63
716.00;14.90
718.00;15.19
720.00;13.91
722.00;13.58
724.00;16.76
726.00;13.14
728.00;11.75
730.00;15.33
732.00;15.79
734.00;13.72
736.00;15.58
738.00;15.97
740.00;13.10
742.00;14.07
744.00;12.83
746.00;12.58
748.00;15.23
750.00;15.13
752.00;15.53
754.00;13.14
756.00;12.07
758.00;15.96
760.00;16.94
762.00;15.36
764.00;15.90
766.00;14.94
768.00;15.03
770.00;15.49
772.00;14.91
774.00;16.58
776.00;18.13
778.00;17.83
780.00;16.07
782.00;19.77
784.00;17.40
786.00;15.87
788.00;21.20
790.00;21.90
792.00;23.14
794.00;29.70
796.00;31.93
798.00;28.94
800.00;34.77
802.00;34.96
804.00;39.55
806.00;41.58
808.00;38.20
810.00;36.02
812.00;28.32
814.00;27.05
816.00;23.92
818.00;21.96
820.00;19.23
822.00;18.01
824.00;18.20
826.00;19.64
828.00;19.15
830.00;16.35
832.00;16.28
834.00;17.49
836.00;17.75
838.00;16.54
840.00;19.26
842.00;14.63
844.00;17.06
846.00;16.38
848.00;17.77
850.00;14.97
852.00;17.76
854.00;17.10
856.00;15.50
858.00;12.86
860.00;14.70
862.00;15.79
864.00;14.33
866.00;17.39
868.00;15.32
870.00;14.97
872.00;14.68
874.00;16.00
876.00;15.89
878.00;13.30
880.00;15.23
882.00;16.77
884.00;14.48
886.00;18.44
888.00;17.04
890.00;15.99
892.00;14.66
894.00;16.25
896.00;15.55
898.00;14.73
900.00;18.49
902.00;14.97
904.00;13.81
906.00;12.34
908.00;12.65
910.00;15.12
912.00;13.51
914.00;12.78
916.00;13.39
918.00;14.22
920.00;12.86
922.00;12.80
924.00;14.31
926.00;14.34
928.00;12.98
930.00;8.60
932.00;11.60
934.00;13.04
936.00;13.92
938.00;13.35
940.00;13.83
942.00;11.66
944.00;10.76
946.00;12.70
948.00;12.08
950.00;11.76
952.00;10.77
954.00;10.94
956.00;9.89
958.00;13.60
960.00;11.29
962.00;9.19
964.00;12.03
966.00;7.00
968.00;9.26
970.00;10.17
972.00;8.04
974.00;10.09
976.00;9.31
978.00;10.11
980.00;10.04
982.00;9.82
984.00;10.64
986.00;11.99
988.00;7.81
990.00;7.57
992.00;10.58
994.00;9.72
996.00;11.89
998.00;7.45
1000.00;10.18
1002.00;9.45
1004.00;8.81
1006.00;12.25
1008.00;9.61
1010.00;10.30
1012.00;8.64
1014.00;7.84
1016.00;8.93
1018.00;10.94
1020.00;11.66
1022.00;8.21
1024.00;9.77
1026.00;10.23
1028.00;8.52
1030.00;7.44
1032.00;8.33
1034.00;7.87
1036.00;10.51
1038.00;9.65
1040.00;7.93
1042.00;11.27
1044.00;6.88
1046.00;11.95
1048.00;10.40
1050.00;11.98
1052.00;9.32
1054.00;10.43
1056.00;11.86
1058.00;11.56
1060.00;12.74
1062.00;16.86
1064.00;17.80
1066.00;20.31
1068.00;19.62
1070.00;17.23
1072.00;16.44
1074.00;15.23
1076.00;16.41
1078.00;16.12
1080.00;17.82
1082.00;20.91
1084.00;17.63
1086.00;14.62
1088.00;11.21
1090.00;11.52
1092.00;14.46
1094.00;10.27
1096.00;8.97
1098.00;9.46
1100.00;8.42
1102.00;9.36
1104.00;10.00
1106.00;7.97
1108.00;8.22
1110.00;9.94
1112.00;6.74
1114.00;9.81
1116.00;8.93
1118.00;6.61
1120.00;7.31
1122.00;9.59
1124.00;8.43
1126.00;8.47
1128.00;7.21
1130.00;10.55
1132.00;12.51
1134.00;10.14
1136.00;11.72
1138.00;10.90
1140.00;11.68
1142.00;11.97
1144.00;10.60
1146.00;11.13
1148.00;13.72
1150.00;16.91
1152.00;16.88
1154.00;18.11
1156.00;23.40
1158.00;25.30
1160.00;28.03
1162.00;29.71
1164.00;24.55
1166.00;20.98
1168.00;14.87
1170.00;12.40
1172.00;11.81
1174.00;11.92
1176.00;10.22
1178.00;12.67
1180.00;11.87
1182.00;9.48
1184.00;10.98
1186.00;9.33
1188.00;9.68
1190.00;10.24
1192.00;7.41
1194.00;13.31
1196.00;10.27
1198.00;10.54
1200.00;10.95
1202.00;8.91
1204.00;10.55
1206.00;9.46
1208.00;9.09
1210.00;11.48
1212.00;8.22
1214.00;8.88
1216.00;11.68
1218.00;13.94
1220.00;11.73
1222.00;14.84
1224.00;11.88
1226.00;14.81
1228.00;13.26
1230.00;16.20
1232.00;15.90
1234.00;14.88
1236.00;16.01
1238.00;13.92
1240.00;12.18
1242.00;10.83
1244.00;12.75
1246.00;12.73
1248.00;11.50
1250.00;9.25
1252.00;9.97
1254.00;12.20
1256.00;7.98
1258.00;8.32
1260.00;8.92
1262.00;11.51
1264.00;8.19
1266.00;9.16
1268.00;3.69
1270.00;10.02
1272.00;10.57
1274.00;8.11
1276.00;8.77
1278.00;8.07
1280.00;9.11
1282.00;12.21
1284.00;11.95
1286.00;8.56
1288.00;7.42
1290.00;11.78
1292.00;8.97
1294.00;9.31
1296.00;9.98
1298.00;10.75
1300.00;10.30
1302.00;11.19
1304.00;16.16
1306.00;7.78
1308.00;13.06
1310.00;10.25
1312.00;8.64
1314.00;12.11
1316.00;8.54
1318.00;10.32
1320.00;5.71
1322.00;11.70
1324.00;11.61
1326.00;10.71
1328.00;12.40
1330.00;9.82
1332.00;10.43
1334.00;14.39
1336.00;9.10
1338.00;12.64
1340.00;8.91
1342.00;11.47
1344.00;9.36
1346.00;11.09
1348.00;12.84
1350.00;9.63
1352.00;10.23
1354.00;9.63
1356.00;6.05
1358.00;9.61
1360.00;10.53
1362.00;9.24
1364.00;13.45
1366.00;8.57
1368.00;10.07
1370.00;11.56
1372.00;12.12
1374.00;15.79
1376.00;12.11
1378.00;11.04
1380.00;13.59
1382.00;12.64
1384.00;11.80
1386.00;9.25
1388.00;10.67
1390.00;13.90
1392.00;11.88
1394.00;8.48
1396.00;12.79
1398.00;7.45
1400.00;11.06
1402.00;10.90
1404.00;10.41
1406.00;14.18
1408.00;10.64
1410.00;15.05
1412.00;8.76
1414.00;12.25
1416.00;13.73
1418.00;11.45
1420.00;10.54
1422.00;10.89
1424.00;8.51
1426.00;12.18
1428.00;9.96
1430.00;11.46
1432.00;13.36
1434.00;7.70
1436.00;11.71
1438.00;10.08
1440.00;9.84
1442.00;11.51
1444.00;9.93
1446.00;10.01
1448.00;12.75
1450.00;9.36
1452.00;11.92
1454.00;10.93
1456.00;14.01
1458.00;9.81
1460.00;12.71
1462.00;9.70
1464.00;15.33
1466.00;12.00
1468.00;12.26
1470.00;11.59
1472.00;15.29
1474.00;13.32
1476.00;6.49
1478.00;8.48
1480.00;8.91
1482.00;7.61
1484.00;6.80
1486.00;10.71
1488.00;11.44
1490.00;12.27
1492.00;15.50
1494.00;10.45
1496.00;9.23
1498.00;8.79
1500.00;10.40
1502.00;11.39
1504.00;9.03
1506.00;10.84
1508.00;11.37
1510.00;13.11
1512.00;13.86
1514.00;12.20
1516.00;11.98
1518.00;12.08
1520.00;14.14
1522.00;12.07
1524.00;7.29
1526.00;14.01
1528.00;8.22
1530.00;12.35
1532.00;10.11
1534.00;11.46
1536.00;9.84
1538.00;12.66
1540.00;15.21
1542.00;13.10
1544.00;11.35
1546.00;11.85
1548.00;12.41
1550.00;10.13
1552.00;8.69
1554.00;12.00
1556.00;10.15
1558.00;10.90
1560.00;11.76
1562.00;6.60
1564.00;13.32
1566.00;12.99
1568.00;15.31
1570.00;10.59
1572.00;8.43
1574.00;9.36
1576.00;14.15
1578.00;6.52
1580.00;13.34
1582.00;12.29
1584.00;7.47
1586.00;13.12
1588.00;14.35
1590.00;10.85
1592.00;15.65
1594.00;9.31
1596.00;16.10
1598.00;9.54
1600.00;10.77
1602.00;14.56
1604.00;10.67
1606.00;10.64
1608.00;7.90
1610.00;9.81
1612.00;12.60
1614.00;10.76
1616.00;11.53
1618.00;11.90
1620.00;10.31
1622.00;12.08
1624.00;9.63
1626.00;9.45
1628.00;11.77
1630.00;15.87
1632.00;13.80
1634.00;11.50
1636.00;10.80
1638.00;7.03
1640.00;9.93
1642.00;12.40
1644.00;5.41
1646.00;16.64
1648.00;8.76
1650.00;11.64
1652.00;13.29
1654.00;8.69
1656.00;10.41
1658.00;10.40
1660.00;12.20
1662.00;12.58
1664.00;11.85
1666.00;5.50
1668.00;13.27
1670.00;12.59
1672.00;11.05
1674.00;12.99
1676.00;12.20
1678.00;15.13
1680.00;9.11
1682.00;10.07
1684.00;11.57
1686.00;7.69
1688.00;7.38
1690.00;9.88
1692.00;9.43
1694.00;9.75
1696.00;13.79
1698.00;15.46
1700.00;7.19
1702.00;8.39
1704.00;10.97
1706.00;5.29
1708.00;13.20
1710.00;8.12
1712.00;8.17
1714.00;10.91
1716.00;11.69
1718.00;10.70
1720.00;10.24
1722.00;12.58
1724.00;2.65
1726.00;10.29
1728.00;14.49
1730.00;12.32
1732.00;11.47
1734.00;9.71
1736.00;6.49
1738.00;6.90
1740.00;11.18
1742.00;13.73
1744.00;9.97
1746.00;13.79
1748.00;12.74
1750.00;13.68
1752.00;8.21
1754.00;10.32
1756.00;5.44
1758.00;9.95
1760.00;13.32
1762.00;10.66
1764.00;10.96
1766.00;11.81
1768.00;13.82
1770.00;14.36
1772.00;6.67
1774.00;14.60
1776.00;10.71
1778.00;10.20
1780.00;10.35
1782.00;9.20
1784.00;7.23
1786.00;9.79
1788.00;12.49
1790.00;9.17
1792.00;9.75
1794.00;11.42
1796.00;9.83
1798.00;9.66
1800.00;7.01
1802.00;7.13
1804.00;10.63
1806.00;11.87
1808.00;14.32
1810.00;4.99
1812.00;8.23
1814.00;8.63
1816.00;7.07
1818.00;7.47
1820.00;8.06
1822.00;10.67
1824.00;8.84
1826.00;12.02
1828.00;6.90
1830.00;10.19
1832.00;11.33
1834.00;13.58
1836.00;9.68
1838.00;7.66
1840.00;10.12
1842.00;6.02
1844.00;9.96
1846.00;12.15
1848.00;15.60
1850.00;6.30
1852.00;5.63
1854.00;6.11
1856.00;6.03
1858.00;15.07
1860.00;10.45
1862.00;12.03
1864.00;5.89
1866.00;17.80
1868.00;10.05
1870.00;10.49
1872.00;8.64
1874.00;6.83
1876.00;11.03
1878.00;12.35
1880.00;8.98
1882.00;9.16
1884.00;12.68
1886.00;8.66
1888.00;13.36
1890.00;13.85
1892.00;15.08
1894.00;7.01
1896.00;15.18
1898.00;6.55
1900.00;13.82
1902.00;12.14
1904.00;11.30
1906.00;11.22
1908.00;19.10
1910.00;8.31
1912.00;10.40
1914.00;10.45
1916.00;11.09
1918.00;8.27
1920.00;11.24
1922.00;10.55
1924.00;4.32
1926.00;9.87
1928.00;6.15
1930.00;-1.03
1932.00;9.94
1934.00;6.93
1936.00;7.55
1938.00;12.22
1940.00;15.55
1942.00;13.88
1944.00;6.49
1946.00;5.26
1948.00;12.31
1950.00;5.04
1952.00;14.02
1954.00;8.41
1956.00;10.62
1958.00;6.37
1960.00;2.09
1962.00;12.28
1964.00;11.04
1966.00;15.57
1968.00;7.87
1970.00;7.35
1972.00;7.32
1974.00;14.49
1976.00;4.12
1978.00;3.77
1980.00;9.07
1982.00;8.05
1984.00;5.61
1986.00;6.60
1988.00;8.15
1990.00;6.37
1992.00;12.66
1994.00;10.50
1996.00;6.39
1998.00;7.56
2000.00;5.44
2002.00;14.25
2004.00;7.86
2006.00;11.79
2008.00;12.98
2010.00;11.29
2012.00;9.95
2014.00;9.78
2016.00;12.58
2018.00;12.74
2020.00;14.46
2022.00;6.65
2024.00;5.87
2026.00;11.82
2028.00;15.20
2030.00;7.36
2032.00;13.75
2034.00;8.21
2036.00;-4.77
2038.00;19.77
2040.00;10.75
2042.00;6.83
2044.00;6.83
2046.00;15.44
2048.00;11.30
2050.00;12.77
2052.00;6.64
2054.00;9.92
2056.00;2.69
2058.00;12.37
2060.00;-1.16
2062.00;12.24
2064.00;10.69
2066.00;5.47
2068.00;8.25
2070.00;17.73
2072.00;6.85
2074.00;3.82
2076.00;8.39
2078.00;7.64
2080.00;18.25
2082.00;8.78
2084.00;10.83
2086.00;7.77
2088.00;2.07
2090.00;8.16
2092.00;8.35
2094.00;5.26
2096.00;8.87
2098.00;2.54
2100.00;13.81
2102.00;13.87
2104.00;4.41
2106.00;12.83
2108.00;11.29
2110.00;1.38
2112.00;24.50
2114.00;7.19
2116.00;10.20
2118.00;8.85
2120.00;18.11
2122.00;18.61
2124.00;9.77
2126.00;9.24
2128.00;6.12
2130.00;13.43
2132.00;11.01
2134.00;11.00
2136.00;14.10
2138.00;9.52
2140.00;13.15
2142.00;3.59
2144.00;9.07
2146.00;16.26
2148.00;1.91
2150.00;18.98
2152.00;10.87
2154.00;14.54
2156.00;7.22
2158.00;13.38
2160.00;14.94
2162.00;12.13
2164.00;11.24
2166.00;10.80
2168.00;10.18
2170.00;14.77
2172.00;4.90
2174.00;16.52
2176.00;0.72
2178.00;4.31
2180.00;10.24
2182.00;12.63
2184.00;7.00
2186.00;10.68
2188.00;15.13
2190.00;15.80
2192.00;14.93
2194.00;3.49
2196.00;12.79
2198.00;11.32
2200.00;5.01
2202.00;11.20
2204.00;13.62
2206.00;4.25
2208.00;14.72
2210.00;8.18
2212.00;3.45
2214.00;12.84
2216.00;3.30
2218.00;16.30
2220.00;8.45
2222.00;16.98
2224.00;14.01
2226.00;12.53
2228.00;11.48
2230.00;14.43
2232.00;4.38
2234.00;3.77
2236.00;12.96
2238.00;2.29
2240.00;23.21
2242.00;0.46
2244.00;21.42
2246.00;3.89
2248.00;-2.71
2250.00;5.60
2252.00;3.31
2254.00;11.48
2256.00;11.85
2258.00;13.81
2260.00;8.82
2262.00;8.54
2264.00;12.15
2266.00;7.81
2268.00;9.76
2270.00;1.50
2272.00;7.16
2274.00;5.82
2276.00;11.04
2278.00;17.40
2280.00;5.72
2282.00;-1.55
2284.00;9.45
2286.00;6.25
2288.00;0.24
2290.00;15.93
2292.00;9.37
2294.00;5.76
2296.00;8.30
2298.00;16.74
2300.00;3.96
[ANALYSIS RESULT]
Analysis_Type;None
