AP Cora 5001
Software_Version;1.4.1
[SAMPLE]
Sample_Name;Bov_denat1_before_2
Method;
[PARAMETERS]
Instrument_Type;Cora 5001
Instrument_SN;99119713
Last_SST;2/13/2024 2:05:45 PM +00:00
User_Name;labmanager
Measurement_Started;2/13/2024 3:29:39 PM
Measurement_Finished;2/13/2024 3:30:40 PM
Measurement_Saved;2/13/2024 3:30:40 PM
Wavelength;785
Laser_Power;30
Auto_Exposure;False
Exposure_Time;10000
Averaged_Spectra;3
Probe_Type;Regular Probe (785 nm)
Probe_SN;99101107
Dark_Background;True
User_Background_Spectrum;
Spike_Removal;True
Baseline_Correction;False
Smoothing;False
Normalization;None
[SPECTRUM QUALITY]
Quality_Saturation;False
Quality_SBR;NaN
Quality_Temperature;False
[SPECTRUM]
100.00;7533.72
102.00;7280.26
104.00;7020.74
106.00;6761.48
108.00;6498.15
110.00;6198.79
112.00;5895.84
114.00;5605.28
116.00;5309.03
118.00;5025.23
120.00;4754.48
122.00;4504.18
124.00;4279.20
126.00;4075.79
128.00;3895.07
130.00;3741.87
132.00;3597.69
134.00;3475.59
136.00;3370.85
138.00;3277.83
140.00;3196.97
142.00;3123.77
144.00;3064.08
146.00;3014.23
148.00;2969.11
150.00;2938.13
152.00;2923.19
154.00;2897.12
156.00;2882.96
158.00;2874.14
160.00;2867.19
162.00;2859.54
164.00;2855.85
166.00;2844.19
168.00;2835.18
170.00;2836.47
172.00;2832.87
174.00;2824.39
176.00;2817.66
178.00;2806.93
180.00;2801.24
182.00;2793.09
184.00;2780.03
186.00;2775.44
188.00;2768.99
190.00;2762.18
192.00;2743.70
194.00;2734.00
196.00;2728.34
198.00;2720.68
200.00;2710.58
202.00;2717.97
204.00;2718.94
206.00;2721.76
208.00;2726.09
210.00;2733.85
212.00;2721.21
214.00;2716.46
216.00;2722.06
218.00;2721.48
220.00;2713.01
222.00;2714.95
224.00;2719.20
226.00;2710.95
228.00;2707.54
230.00;2714.24
232.00;2711.63
234.00;2705.38
236.00;2716.29
238.00;2713.88
240.00;2721.38
242.00;2717.72
244.00;2714.22
246.00;2718.20
248.00;2728.28
250.00;2729.61
252.00;2731.72
254.00;2739.84
256.00;2753.18
258.00;2753.61
260.00;2750.89
262.00;2753.60
264.00;2757.72
266.00;2766.36
268.00;2761.71
270.00;2756.76
272.00;2764.33
274.00;2765.39
276.00;2764.87
278.00;2772.74
280.00;2775.73
282.00;2769.35
284.00;2766.53
286.00;2772.71
288.00;2773.30
290.00;2766.93
292.00;2766.59
294.00;2770.26
296.00;2767.25
298.00;2767.70
300.00;2767.67
302.00;2763.39
304.00;2762.48
306.00;2758.88
308.00;2756.69
310.00;2767.39
312.00;2761.77
314.00;2761.96
316.00;2763.07
318.00;2768.18
320.00;2762.35
322.00;2760.10
324.00;2769.31
326.00;2765.10
328.00;2763.70
330.00;2764.69
332.00;2767.88
334.00;2765.64
336.00;2762.53
338.00;2768.65
340.00;2769.07
342.00;2760.14
344.00;2760.43
346.00;2764.78
348.00;2764.78
350.00;2765.88
352.00;2765.87
354.00;2762.66
356.00;2764.00
358.00;2765.34
360.00;2754.83
362.00;2758.99
364.00;2770.14
366.00;2761.01
368.00;2753.19
370.00;2751.09
372.00;2752.59
374.00;2755.06
376.00;2755.91
378.00;2754.00
380.00;2762.00
382.00;2764.57
384.00;2767.80
386.00;2767.79
388.00;2764.60
390.00;2770.73
392.00;2780.32
394.00;2787.03
396.00;2781.72
398.00;2782.84
400.00;2784.19
402.00;2786.55
404.00;2787.79
406.00;2795.43
408.00;2806.72
410.00;2814.70
412.00;2818.38
414.00;2830.33
416.00;2839.24
418.00;2837.42
420.00;2845.60
422.00;2859.74
424.00;2860.53
426.00;2877.41
428.00;2877.48
430.00;2887.94
432.00;2878.57
434.00;2874.63
436.00;2881.56
438.00;2885.95
440.00;2896.53
442.00;2886.82
444.00;2882.56
446.00;2876.75
448.00;2878.49
450.00;2866.15
452.00;2857.62
454.00;2859.32
456.00;2848.81
458.00;2847.38
460.00;2843.22
462.00;2842.90
464.00;2839.29
466.00;2835.47
468.00;2829.32
470.00;2823.77
472.00;2812.60
474.00;2800.52
476.00;2795.05
478.00;2781.58
480.00;2774.70
482.00;2763.85
484.00;2771.35
486.00;2784.59
488.00;2778.63
490.00;2777.91
492.00;2787.10
494.00;2798.78
496.00;2792.50
498.00;2778.55
500.00;2785.76
502.00;2776.73
504.00;2777.91
506.00;2774.55
508.00;2780.95
510.00;2780.62
512.00;2776.98
514.00;2776.75
516.00;2788.30
518.00;2798.76
520.00;2803.10
522.00;2800.56
524.00;2800.38
526.00;2801.22
528.00;2810.96
530.00;2814.15
532.00;2814.78
534.00;2806.72
536.00;2803.81
538.00;2798.32
540.00;2802.71
542.00;2797.75
544.00;2809.46
546.00;2814.31
548.00;2814.83
550.00;2815.49
552.00;2820.66
554.00;2820.79
556.00;2831.32
558.00;2840.06
560.00;2836.63
562.00;2842.86
564.00;2844.97
566.00;2851.94
568.00;2864.69
570.00;2861.53
572.00;2866.80
574.00;2873.29
576.00;2875.74
578.00;2878.95
580.00;2888.97
582.00;2896.12
584.00;2893.76
586.00;2898.73
588.00;2898.03
590.00;2891.71
592.00;2883.14
594.00;2880.70
596.00;2875.89
598.00;2861.59
600.00;2855.50
602.00;2850.15
604.00;2841.65
606.00;2834.02
608.00;2831.63
610.00;2833.56
612.00;2832.78
614.00;2825.92
616.00;2821.70
618.00;2817.39
620.00;2815.69
622.00;2807.80
624.00;2796.89
626.00;2792.59
628.00;2791.83
630.00;2775.50
632.00;2768.53
634.00;2764.85
636.00;2765.63
638.00;2762.78
640.00;2764.52
642.00;2759.43
644.00;2756.17
646.00;2751.78
648.00;2753.28
650.00;2752.81
652.00;2746.00
654.00;2750.71
656.00;2759.38
658.00;2746.13
660.00;2740.23
662.00;2748.05
664.00;2750.16
666.00;2747.46
668.00;2744.35
670.00;2751.35
672.00;2750.43
674.00;2747.10
676.00;2739.29
678.00;2741.35
680.00;2742.28
682.00;2745.94
684.00;2745.97
686.00;2736.52
688.00;2732.05
690.00;2740.34
692.00;2740.65
694.00;2736.05
696.00;2742.05
698.00;2737.23
700.00;2739.21
702.00;2737.49
704.00;2735.02
706.00;2727.94
708.00;2725.03
710.00;2724.24
712.00;2712.26
714.00;2718.20
716.00;2721.82
718.00;2714.50
720.00;2716.48
722.00;2725.79
724.00;2723.58
726.00;2718.08
728.00;2717.37
730.00;2725.89
732.00;2730.69
734.00;2717.78
736.00;2719.25
738.00;2712.91
740.00;2706.53
742.00;2707.93
744.00;2703.64
746.00;2692.83
748.00;2700.22
750.00;2693.50
752.00;2698.80
754.00;2699.39
756.00;2701.67
758.00;2696.42
760.00;2693.54
762.00;2700.59
764.00;2698.25
766.00;2693.22
768.00;2683.26
770.00;2676.23
772.00;2675.93
774.00;2678.44
776.00;2676.24
778.00;2677.00
780.00;2667.80
782.00;2666.36
784.00;2671.20
786.00;2668.06
788.00;2669.97
790.00;2673.32
792.00;2667.26
794.00;2661.46
796.00;2659.74
798.00;2665.67
800.00;2662.57
802.00;2661.98
804.00;2659.38
806.00;2663.42
808.00;2671.02
810.00;2676.59
812.00;2674.78
814.00;2683.12
816.00;2683.03
818.00;2678.45
820.00;2667.13
822.00;2664.67
824.00;2659.92
826.00;2653.10
828.00;2651.33
830.00;2664.30
832.00;2658.38
834.00;2650.27
836.00;2650.48
838.00;2641.27
840.00;2639.35
842.00;2649.72
844.00;2671.61
846.00;2677.18
848.00;2686.44
850.00;2700.73
852.00;2691.28
854.00;2677.82
856.00;2688.36
858.00;2681.73
860.00;2678.71
862.00;2668.31
864.00;2665.79
866.00;2668.46
868.00;2665.49
870.00;2670.85
872.00;2672.44
874.00;2667.29
876.00;2667.53
878.00;2665.53
880.00;2659.52
882.00;2658.05
884.00;2663.57
886.00;2658.08
888.00;2653.03
890.00;2644.62
892.00;2654.26
894.00;2647.25
896.00;2646.54
898.00;2643.31
900.00;2634.57
902.00;2629.92
904.00;2624.00
906.00;2626.05
908.00;2622.96
910.00;2622.54
912.00;2637.24
914.00;2655.42
916.00;2661.30
918.00;2670.13
920.00;2671.98
922.00;2673.24
924.00;2678.91
926.00;2668.78
928.00;2667.62
930.00;2676.88
932.00;2695.89
934.00;2713.35
936.00;2732.31
938.00;2754.33
940.00;2774.31
942.00;2801.49
944.00;2844.12
946.00;2890.55
948.00;2965.25
950.00;3061.29
952.00;3158.13
954.00;3267.88
956.00;3363.90
958.00;3427.32
960.00;3450.67
962.00;3419.58
964.00;3328.33
966.00;3213.03
968.00;3090.48
970.00;2965.25
972.00;2860.83
974.00;2785.33
976.00;2719.14
978.00;2677.84
980.00;2637.84
982.00;2620.62
984.00;2604.56
986.00;2592.96
988.00;2587.32
990.00;2575.76
992.00;2570.43
994.00;2571.48
996.00;2577.78
998.00;2575.72
1000.00;2580.45
1002.00;2591.99
1004.00;2595.72
1006.00;2584.56
1008.00;2579.68
1010.00;2576.91
1012.00;2571.35
1014.00;2573.23
1016.00;2579.25
1018.00;2578.64
1020.00;2577.27
1022.00;2580.12
1024.00;2583.79
1026.00;2582.49
1028.00;2587.39
1030.00;2587.67
1032.00;2586.59
1034.00;2594.14
1036.00;2593.80
1038.00;2585.22
1040.00;2581.03
1042.00;2586.40
1044.00;2591.71
1046.00;2580.39
1048.00;2581.52
1050.00;2581.69
1052.00;2582.35
1054.00;2575.91
1056.00;2583.82
1058.00;2587.42
1060.00;2597.29
1062.00;2605.85
1064.00;2619.18
1066.00;2638.30
1068.00;2643.95
1070.00;2643.46
1072.00;2648.42
1074.00;2640.11
1076.00;2630.97
1078.00;2611.18
1080.00;2589.71
1082.00;2564.80
1084.00;2546.43
1086.00;2536.68
1088.00;2532.37
1090.00;2513.60
1092.00;2499.48
1094.00;2486.90
1096.00;2482.35
1098.00;2481.67
1100.00;2471.32
1102.00;2475.80
1104.00;2472.16
1106.00;2468.05
1108.00;2464.39
1110.00;2459.06
1112.00;2444.80
1114.00;2440.18
1116.00;2422.73
1118.00;2412.19
1120.00;2409.33
1122.00;2397.08
1124.00;2399.19
1126.00;2405.49
1128.00;2406.94
1130.00;2406.32
1132.00;2408.95
1134.00;2390.39
1136.00;2393.47
1138.00;2388.02
1140.00;2385.05
1142.00;2382.41
1144.00;2382.08
1146.00;2381.62
1148.00;2375.87
1150.00;2374.63
1152.00;2371.78
1154.00;2368.19
1156.00;2375.33
1158.00;2379.49
1160.00;2388.09
1162.00;2374.12
1164.00;2365.98
1166.00;2372.97
1168.00;2363.20
1170.00;2362.11
1172.00;2355.29
1174.00;2352.67
1176.00;2364.58
1178.00;2361.87
1180.00;2351.20
1182.00;2348.37
1184.00;2346.25
1186.00;2343.27
1188.00;2343.49
1190.00;2342.39
1192.00;2350.42
1194.00;2345.82
1196.00;2339.64
1198.00;2336.79
1200.00;2339.44
1202.00;2346.39
1204.00;2343.47
1206.00;2343.82
1208.00;2346.60
1210.00;2338.97
1212.00;2339.81
1214.00;2333.30
1216.00;2331.58
1218.00;2332.85
1220.00;2331.31
1222.00;2331.78
1224.00;2324.61
1226.00;2329.48
1228.00;2337.49
1230.00;2348.99
1232.00;2358.87
1234.00;2360.82
1236.00;2364.51
1238.00;2371.19
1240.00;2370.79
1242.00;2379.88
1244.00;2380.62
1246.00;2373.38
1248.00;2370.66
1250.00;2362.11
1252.00;2363.05
1254.00;2344.13
1256.00;2351.37
1258.00;2351.31
1260.00;2342.08
1262.00;2345.98
1264.00;2347.79
1266.00;2345.93
1268.00;2352.67
1270.00;2343.79
1272.00;2349.12
1274.00;2346.57
1276.00;2335.34
1278.00;2325.19
1280.00;2318.00
1282.00;2305.38
1284.00;2306.77
1286.00;2306.48
1288.00;2291.34
1290.00;2285.31
1292.00;2278.16
1294.00;2273.98
1296.00;2277.71
1298.00;2268.96
1300.00;2265.94
1302.00;2253.65
1304.00;2260.42
1306.00;2261.10
1308.00;2256.46
1310.00;2251.55
1312.00;2260.93
1314.00;2260.17
1316.00;2256.71
1318.00;2256.96
1320.00;2265.43
1322.00;2256.09
1324.00;2254.93
1326.00;2246.41
1328.00;2248.31
1330.00;2243.17
1332.00;2250.69
1334.00;2236.39
1336.00;2239.93
1338.00;2238.58
1340.00;2237.92
1342.00;2240.03
1344.00;2231.19
1346.00;2231.18
1348.00;2227.74
1350.00;2216.20
1352.00;2218.33
1354.00;2205.43
1356.00;2206.40
1358.00;2208.16
1360.00;2204.15
1362.00;2202.64
1364.00;2202.70
1366.00;2200.88
1368.00;2194.75
1370.00;2194.18
1372.00;2199.87
1374.00;2199.57
1376.00;2195.83
1378.00;2194.66
1380.00;2198.30
1382.00;2198.32
1384.00;2198.03
1386.00;2211.79
1388.00;2205.73
1390.00;2197.76
1392.00;2187.17
1394.00;2191.46
1396.00;2188.55
1398.00;2186.84
1400.00;2184.84
1402.00;2181.79
1404.00;2184.99
1406.00;2177.73
1408.00;2160.47
1410.00;2170.07
1412.00;2161.26
1414.00;2167.67
1416.00;2158.43
1418.00;2166.82
1420.00;2168.69
1422.00;2169.06
1424.00;2168.94
1426.00;2171.46
1428.00;2163.19
1430.00;2154.13
1432.00;2157.72
1434.00;2151.63
1436.00;2166.44
1438.00;2172.90
1440.00;2187.33
1442.00;2192.99
1444.00;2198.34
1446.00;2202.96
1448.00;2199.49
1450.00;2208.09
1452.00;2201.72
1454.00;2188.50
1456.00;2181.87
1458.00;2165.15
1460.00;2173.11
1462.00;2170.58
1464.00;2166.99
1466.00;2157.24
1468.00;2147.56
1470.00;2118.47
1472.00;2115.30
1474.00;2115.03
1476.00;2090.96
1478.00;2090.10
1480.00;2088.34
1482.00;2081.71
1484.00;2075.61
1486.00;2068.66
1488.00;2057.64
1490.00;2051.86
1492.00;2052.72
1494.00;2038.98
1496.00;2030.62
1498.00;2038.67
1500.00;2037.92
1502.00;2027.79
1504.00;2021.57
1506.00;2019.49
1508.00;2017.30
1510.00;2011.07
1512.00;2003.33
1514.00;2009.72
1516.00;2009.20
1518.00;2002.66
1520.00;2009.34
1522.00;1995.46
1524.00;1992.09
1526.00;1988.94
1528.00;1992.50
1530.00;1997.93
1532.00;1990.78
1534.00;1988.41
1536.00;1980.63
1538.00;1980.94
1540.00;1980.98
1542.00;1982.76
1544.00;1983.89
1546.00;1971.14
1548.00;1971.41
1550.00;1971.61
1552.00;1965.95
1554.00;1964.78
1556.00;1968.04
1558.00;1957.49
1560.00;1951.36
1562.00;1956.10
1564.00;1947.00
1566.00;1949.01
1568.00;1940.09
1570.00;1953.27
1572.00;1950.92
1574.00;1948.40
1576.00;1951.57
1578.00;1950.53
1580.00;1945.50
1582.00;1943.35
1584.00;1954.61
1586.00;1942.07
1588.00;1939.54
1590.00;1940.05
1592.00;1936.43
1594.00;1939.24
1596.00;1934.52
1598.00;1938.12
1600.00;1944.30
1602.00;1950.24
1604.00;1929.36
1606.00;1936.76
1608.00;1931.78
1610.00;1936.85
1612.00;1926.24
1614.00;1932.01
1616.00;1931.16
1618.00;1923.30
1620.00;1941.84
1622.00;1936.39
1624.00;1933.49
1626.00;1935.74
1628.00;1943.47
1630.00;1946.40
1632.00;1947.07
1634.00;1946.09
1636.00;1941.28
1638.00;1941.31
1640.00;1950.43
1642.00;1949.99
1644.00;1937.70
1646.00;1944.08
1648.00;1940.07
1650.00;1935.91
1652.00;1934.82
1654.00;1942.17
1656.00;1946.52
1658.00;1935.66
1660.00;1939.23
1662.00;1933.19
1664.00;1932.24
1666.00;1938.63
1668.00;1943.88
1670.00;1932.36
1672.00;1929.56
1674.00;1914.55
1676.00;1913.43
1678.00;1908.42
1680.00;1898.14
1682.00;1894.33
1684.00;1893.78
1686.00;1889.16
1688.00;1878.26
1690.00;1867.06
1692.00;1848.33
1694.00;1842.39
1696.00;1836.29
1698.00;1832.60
1700.00;1826.95
1702.00;1823.45
1704.00;1804.30
1706.00;1796.65
1708.00;1804.33
1710.00;1789.61
1712.00;1777.13
1714.00;1774.96
1716.00;1777.89
1718.00;1771.61
1720.00;1778.93
1722.00;1761.57
1724.00;1757.83
1726.00;1760.57
1728.00;1750.91
1730.00;1753.73
1732.00;1741.06
1734.00;1741.42
1736.00;1751.58
1738.00;1724.51
1740.00;1733.93
1742.00;1730.57
1744.00;1740.78
1746.00;1733.28
1748.00;1728.46
1750.00;1738.64
1752.00;1737.24
1754.00;1713.87
1756.00;1725.01
1758.00;1718.06
1760.00;1715.71
1762.00;1705.44
1764.00;1698.58
1766.00;1698.65
1768.00;1709.72
1770.00;1709.92
1772.00;1700.89
1774.00;1698.18
1776.00;1704.77
1778.00;1687.32
1780.00;1690.53
1782.00;1686.43
1784.00;1685.50
1786.00;1676.07
1788.00;1667.75
1790.00;1681.88
1792.00;1669.04
1794.00;1675.52
1796.00;1667.82
1798.00;1673.27
1800.00;1676.09
1802.00;1680.91
1804.00;1673.71
1806.00;1665.17
1808.00;1661.05
1810.00;1657.33
1812.00;1661.29
1814.00;1662.45
1816.00;1656.62
1818.00;1663.05
1820.00;1642.31
1822.00;1649.16
1824.00;1630.75
1826.00;1632.88
1828.00;1628.20
1830.00;1632.53
1832.00;1631.70
1834.00;1628.21
1836.00;1626.20
1838.00;1608.97
1840.00;1624.89
1842.00;1620.73
1844.00;1619.92
1846.00;1617.86
1848.00;1611.31
1850.00;1610.80
1852.00;1612.24
1854.00;1608.89
1856.00;1605.62
1858.00;1603.00
1860.00;1594.23
1862.00;1590.79
1864.00;1602.79
1866.00;1592.32
1868.00;1598.07
1870.00;1580.78
1872.00;1584.01
1874.00;1581.56
1876.00;1582.28
1878.00;1583.49
1880.00;1555.12
1882.00;1560.80
1884.00;1572.72
1886.00;1566.59
1888.00;1572.55
1890.00;1556.41
1892.00;1558.61
1894.00;1561.29
1896.00;1554.06
1898.00;1551.84
1900.00;1556.07
1902.00;1554.00
1904.00;1558.41
1906.00;1535.44
1908.00;1541.11
1910.00;1545.24
1912.00;1530.30
1914.00;1526.15
1916.00;1530.19
1918.00;1527.81
1920.00;1534.86
1922.00;1536.29
1924.00;1533.55
1926.00;1526.43
1928.00;1523.87
1930.00;1525.57
1932.00;1522.38
1934.00;1508.48
1936.00;1510.76
1938.00;1517.67
1940.00;1499.59
1942.00;1500.23
1944.00;1494.90
1946.00;1495.14
1948.00;1499.99
1950.00;1504.93
1952.00;1496.99
1954.00;1483.82
1956.00;1489.42
1958.00;1490.98
1960.00;1488.55
1962.00;1470.61
1964.00;1481.32
1966.00;1484.98
1968.00;1466.74
1970.00;1478.24
1972.00;1459.08
1974.00;1465.48
1976.00;1452.61
1978.00;1458.89
1980.00;1450.41
1982.00;1458.32
1984.00;1453.90
1986.00;1450.61
1988.00;1437.01
1990.00;1446.99
1992.00;1452.14
1994.00;1441.83
1996.00;1429.75
1998.00;1440.18
2000.00;1446.46
2002.00;1438.53
2004.00;1449.45
2006.00;1429.91
2008.00;1434.47
2010.00;1439.40
2012.00;1421.37
2014.00;1420.38
2016.00;1427.83
2018.00;1421.80
2020.00;1436.09
2022.00;1408.79
2024.00;1436.01
2026.00;1428.92
2028.00;1413.90
2030.00;1419.62
2032.00;1409.78
2034.00;1405.79
2036.00;1428.70
2038.00;1405.11
2040.00;1397.83
2042.00;1398.28
2044.00;1404.66
2046.00;1399.49
2048.00;1397.93
2050.00;1402.84
2052.00;1392.92
2054.00;1390.57
2056.00;1379.83
2058.00;1393.23
2060.00;1383.48
2062.00;1385.33
2064.00;1381.08
2066.00;1377.35
2068.00;1377.66
2070.00;1370.23
2072.00;1374.14
2074.00;1383.32
2076.00;1367.23
2078.00;1361.99
2080.00;1362.72
2082.00;1361.57
2084.00;1348.54
2086.00;1351.45
2088.00;1358.02
2090.00;1333.88
2092.00;1343.77
2094.00;1341.56
2096.00;1359.73
2098.00;1351.80
2100.00;1349.57
2102.00;1369.49
2104.00;1327.06
2106.00;1338.11
2108.00;1324.03
2110.00;1325.76
2112.00;1329.93
2114.00;1325.98
2116.00;1327.31
2118.00;1324.03
2120.00;1328.51
2122.00;1317.88
2124.00;1318.34
2126.00;1314.91
2128.00;1320.91
2130.00;1307.21
2132.00;1302.18
2134.00;1308.61
2136.00;1301.90
2138.00;1296.36
2140.00;1306.30
2142.00;1293.47
2144.00;1286.48
2146.00;1283.69
2148.00;1307.50
2150.00;1290.70
2152.00;1287.13
2154.00;1303.34
2156.00;1281.48
2158.00;1282.08
2160.00;1282.69
2162.00;1282.63
2164.00;1284.46
2166.00;1279.27
2168.00;1280.26
2170.00;1285.74
2172.00;1248.33
2174.00;1275.26
2176.00;1271.57
2178.00;1271.17
2180.00;1263.92
2182.00;1266.50
2184.00;1275.98
2186.00;1264.01
2188.00;1255.80
2190.00;1282.37
2192.00;1253.61
2194.00;1249.22
2196.00;1251.80
2198.00;1264.30
2200.00;1260.46
2202.00;1246.82
2204.00;1247.12
2206.00;1224.93
2208.00;1261.44
2210.00;1229.53
2212.00;1244.60
2214.00;1258.74
2216.00;1234.05
2218.00;1246.91
2220.00;1243.56
2222.00;1254.81
2224.00;1250.15
2226.00;1227.85
2228.00;1226.68
2230.00;1233.21
2232.00;1235.60
2234.00;1217.31
2236.00;1212.47
2238.00;1212.63
2240.00;1218.14
2242.00;1215.06
2244.00;1208.43
2246.00;1200.71
2248.00;1224.25
2250.00;1205.17
2252.00;1196.43
2254.00;1187.78
2256.00;1173.54
2258.00;1195.03
2260.00;1175.71
2262.00;1198.91
2264.00;1194.36
2266.00;1201.23
2268.00;1202.55
2270.00;1199.68
2272.00;1187.31
2274.00;1170.33
2276.00;1192.32
2278.00;1171.09
2280.00;1183.51
2282.00;1165.65
2284.00;1195.81
2286.00;1181.13
2288.00;1160.03
2290.00;1169.37
2292.00;1159.54
2294.00;1164.10
2296.00;1151.99
2298.00;1171.38
2300.00;1155.38
[ANALYSIS RESULT]
Analysis_Type;None
