AP Cora 5001
Software_Version;1.4.1
[SAMPLE]
Sample_Name;Sample2_plexi_10
Method;
[PARAMETERS]
Instrument_Type;Cora 5001
Instrument_SN;99119713
Last_SST;4/23/2024 1:36:37 PM +00:00
User_Name;labmanager
Measurement_Started;4/25/2024 2:58:47 PM
Measurement_Finished;4/25/2024 2:59:48 PM
Measurement_Saved;4/25/2024 2:59:48 PM
Wavelength;785
Laser_Power;30
Auto_Exposure;False
Exposure_Time;10000
Averaged_Spectra;3
Probe_Type;Regular Probe (785 nm)
Probe_SN;99101107
Dark_Background;True
User_Background_Spectrum;
Spike_Removal;True
Baseline_Correction;False
Smoothing;False
Normalization;None
[SPECTRUM QUALITY]
Quality_Saturation;False
Quality_SBR;NaN
Quality_Temperature;False
[SPECTRUM]
100.00;3998.52
102.00;3884.75
104.00;3774.94
106.00;3651.79
108.00;3516.94
110.00;3387.04
112.00;3249.17
114.00;3087.76
116.00;2930.00
118.00;2777.28
120.00;2634.33
122.00;2483.80
124.00;2343.51
126.00;2227.20
128.00;2123.31
130.00;2018.38
132.00;1926.83
134.00;1846.82
136.00;1771.61
138.00;1711.63
140.00;1666.22
142.00;1620.61
144.00;1576.90
146.00;1550.32
148.00;1523.48
150.00;1497.91
152.00;1484.05
154.00;1470.85
156.00;1459.98
158.00;1443.14
160.00;1438.73
162.00;1430.21
164.00;1415.48
166.00;1406.15
168.00;1405.02
170.00;1405.70
172.00;1397.61
174.00;1385.00
176.00;1378.85
178.00;1373.73
180.00;1365.67
182.00;1355.52
184.00;1348.11
186.00;1343.77
188.00;1331.30
190.00;1327.51
192.00;1323.17
194.00;1310.97
196.00;1310.31
198.00;1308.50
200.00;1293.21
202.00;1291.03
204.00;1294.67
206.00;1292.39
208.00;1291.64
210.00;1290.28
212.00;1286.02
214.00;1281.90
216.00;1282.01
218.00;1281.36
220.00;1274.72
222.00;1270.66
224.00;1271.13
226.00;1268.72
228.00;1263.83
230.00;1266.60
232.00;1269.70
234.00;1260.55
236.00;1261.68
238.00;1255.35
240.00;1258.22
242.00;1259.53
244.00;1255.46
246.00;1258.33
248.00;1256.65
250.00;1255.69
252.00;1257.05
254.00;1262.75
256.00;1264.12
258.00;1262.73
260.00;1261.07
262.00;1263.48
264.00;1266.65
266.00;1268.75
268.00;1267.20
270.00;1271.31
272.00;1273.53
274.00;1266.59
276.00;1268.64
278.00;1268.84
280.00;1267.36
282.00;1271.76
284.00;1267.00
286.00;1267.38
288.00;1269.14
290.00;1266.80
292.00;1269.72
294.00;1273.85
296.00;1262.18
298.00;1262.23
300.00;1265.45
302.00;1267.30
304.00;1263.25
306.00;1268.72
308.00;1268.11
310.00;1263.68
312.00;1262.52
314.00;1257.13
316.00;1257.23
318.00;1253.88
320.00;1254.67
322.00;1253.16
324.00;1259.41
326.00;1262.22
328.00;1260.44
330.00;1254.33
332.00;1247.91
334.00;1250.56
336.00;1251.56
338.00;1252.24
340.00;1252.87
342.00;1245.00
344.00;1246.93
346.00;1246.23
348.00;1241.87
350.00;1245.89
352.00;1245.65
354.00;1244.74
356.00;1240.63
358.00;1237.25
360.00;1235.83
362.00;1232.63
364.00;1233.29
366.00;1231.52
368.00;1226.13
370.00;1231.39
372.00;1232.90
374.00;1232.41
376.00;1235.44
378.00;1234.30
380.00;1229.98
382.00;1234.84
384.00;1236.83
386.00;1241.23
388.00;1244.22
390.00;1247.03
392.00;1247.58
394.00;1243.29
396.00;1238.92
398.00;1237.63
400.00;1241.69
402.00;1246.07
404.00;1245.34
406.00;1249.00
408.00;1247.49
410.00;1251.87
412.00;1255.09
414.00;1252.78
416.00;1256.54
418.00;1255.23
420.00;1259.32
422.00;1266.50
424.00;1268.66
426.00;1270.83
428.00;1275.11
430.00;1274.29
432.00;1274.14
434.00;1268.49
436.00;1266.74
438.00;1262.86
440.00;1268.83
442.00;1263.74
444.00;1264.67
446.00;1259.00
448.00;1249.81
450.00;1257.01
452.00;1254.90
454.00;1250.75
456.00;1246.34
458.00;1249.42
460.00;1246.39
462.00;1241.26
464.00;1241.09
466.00;1243.15
468.00;1238.73
470.00;1237.01
472.00;1234.50
474.00;1228.80
476.00;1232.05
478.00;1221.14
480.00;1217.98
482.00;1220.99
484.00;1218.26
486.00;1220.99
488.00;1217.73
490.00;1223.51
492.00;1220.85
494.00;1220.73
496.00;1226.25
498.00;1226.84
500.00;1222.14
502.00;1220.94
504.00;1219.93
506.00;1220.11
508.00;1225.06
510.00;1219.78
512.00;1218.34
514.00;1222.76
516.00;1225.59
518.00;1227.13
520.00;1222.61
522.00;1229.74
524.00;1228.06
526.00;1231.50
528.00;1228.67
530.00;1234.24
532.00;1234.19
534.00;1229.24
536.00;1226.91
538.00;1229.93
540.00;1227.07
542.00;1228.95
544.00;1231.54
546.00;1236.12
548.00;1235.95
550.00;1233.79
552.00;1234.46
554.00;1235.08
556.00;1239.45
558.00;1243.54
560.00;1246.77
562.00;1249.84
564.00;1246.67
566.00;1246.84
568.00;1254.19
570.00;1250.52
572.00;1251.30
574.00;1253.37
576.00;1257.02
578.00;1256.73
580.00;1256.80
582.00;1258.91
584.00;1258.53
586.00;1269.26
588.00;1269.52
590.00;1265.71
592.00;1259.95
594.00;1260.38
596.00;1252.69
598.00;1248.69
600.00;1245.01
602.00;1248.01
604.00;1240.34
606.00;1243.13
608.00;1239.61
610.00;1234.12
612.00;1233.94
614.00;1233.00
616.00;1229.29
618.00;1231.26
620.00;1228.52
622.00;1228.52
624.00;1224.38
626.00;1226.12
628.00;1220.92
630.00;1218.09
632.00;1216.36
634.00;1212.43
636.00;1213.82
638.00;1211.12
640.00;1214.13
642.00;1213.40
644.00;1211.25
646.00;1207.79
648.00;1209.78
650.00;1207.18
652.00;1204.20
654.00;1206.22
656.00;1212.76
658.00;1210.30
660.00;1207.58
662.00;1209.16
664.00;1207.27
666.00;1204.05
668.00;1202.46
670.00;1207.07
672.00;1210.63
674.00;1206.79
676.00;1204.25
678.00;1203.97
680.00;1205.60
682.00;1202.04
684.00;1205.58
686.00;1205.08
688.00;1205.90
690.00;1208.21
692.00;1203.43
694.00;1209.84
696.00;1207.24
698.00;1207.45
700.00;1208.52
702.00;1206.82
704.00;1204.31
706.00;1207.79
708.00;1210.78
710.00;1204.62
712.00;1199.81
714.00;1203.53
716.00;1206.99
718.00;1211.81
720.00;1203.52
722.00;1204.70
724.00;1208.71
726.00;1207.61
728.00;1204.83
730.00;1208.62
732.00;1210.02
734.00;1207.47
736.00;1203.11
738.00;1203.26
740.00;1209.48
742.00;1205.51
744.00;1203.21
746.00;1199.96
748.00;1199.02
750.00;1203.53
752.00;1205.21
754.00;1206.40
756.00;1206.56
758.00;1204.55
760.00;1205.10
762.00;1200.64
764.00;1200.64
766.00;1202.32
768.00;1199.13
770.00;1200.64
772.00;1197.81
774.00;1201.12
776.00;1200.40
778.00;1197.61
780.00;1200.34
782.00;1192.76
784.00;1193.46
786.00;1197.35
788.00;1196.32
790.00;1195.59
792.00;1198.84
794.00;1193.60
796.00;1188.80
798.00;1192.01
800.00;1189.84
802.00;1192.13
804.00;1194.01
806.00;1200.48
808.00;1201.16
810.00;1202.58
812.00;1211.90
814.00;1216.93
816.00;1213.27
818.00;1214.92
820.00;1211.85
822.00;1207.28
824.00;1202.40
826.00;1196.35
828.00;1193.76
830.00;1197.56
832.00;1201.25
834.00;1195.76
836.00;1196.69
838.00;1197.39
840.00;1204.84
842.00;1206.36
844.00;1208.37
846.00;1224.32
848.00;1235.88
850.00;1240.05
852.00;1239.09
854.00;1239.83
856.00;1242.50
858.00;1231.36
860.00;1237.77
862.00;1232.65
864.00;1229.39
866.00;1230.98
868.00;1230.36
870.00;1229.39
872.00;1225.52
874.00;1227.65
876.00;1228.20
878.00;1228.39
880.00;1227.00
882.00;1219.99
884.00;1214.61
886.00;1217.38
888.00;1212.72
890.00;1213.05
892.00;1209.23
894.00;1202.05
896.00;1210.87
898.00;1212.66
900.00;1206.98
902.00;1205.30
904.00;1201.29
906.00;1204.88
908.00;1206.24
910.00;1214.87
912.00;1216.31
914.00;1223.66
916.00;1225.56
918.00;1232.71
920.00;1235.12
922.00;1233.75
924.00;1234.08
926.00;1231.48
928.00;1230.62
930.00;1232.68
932.00;1241.20
934.00;1243.73
936.00;1253.64
938.00;1257.77
940.00;1268.41
942.00;1279.81
944.00;1287.16
946.00;1301.06
948.00;1325.12
950.00;1361.56
952.00;1396.55
954.00;1431.30
956.00;1463.81
958.00;1483.74
960.00;1490.23
962.00;1480.35
964.00;1458.63
966.00;1415.73
968.00;1372.79
970.00;1330.34
972.00;1290.28
974.00;1266.25
976.00;1241.62
978.00;1215.90
980.00;1204.37
982.00;1196.90
984.00;1185.56
986.00;1178.21
988.00;1182.37
990.00;1178.86
992.00;1180.25
994.00;1176.16
996.00;1178.04
998.00;1185.82
1000.00;1190.17
1002.00;1196.23
1004.00;1197.56
1006.00;1195.15
1008.00;1192.65
1010.00;1186.73
1012.00;1183.60
1014.00;1182.79
1016.00;1184.86
1018.00;1182.08
1020.00;1188.50
1022.00;1189.10
1024.00;1188.38
1026.00;1190.88
1028.00;1193.62
1030.00;1191.34
1032.00;1198.33
1034.00;1202.14
1036.00;1200.22
1038.00;1195.14
1040.00;1197.06
1042.00;1203.01
1044.00;1197.57
1046.00;1196.91
1048.00;1197.26
1050.00;1199.99
1052.00;1197.68
1054.00;1193.64
1056.00;1195.72
1058.00;1195.43
1060.00;1193.66
1062.00;1198.79
1064.00;1207.64
1066.00;1214.90
1068.00;1212.99
1070.00;1214.03
1072.00;1211.55
1074.00;1216.50
1076.00;1213.70
1078.00;1199.86
1080.00;1199.41
1082.00;1188.25
1084.00;1183.78
1086.00;1178.83
1088.00;1177.74
1090.00;1172.34
1092.00;1176.67
1094.00;1172.55
1096.00;1166.21
1098.00;1166.01
1100.00;1163.27
1102.00;1168.47
1104.00;1163.10
1106.00;1158.16
1108.00;1153.94
1110.00;1150.42
1112.00;1143.26
1114.00;1135.88
1116.00;1131.68
1118.00;1136.42
1120.00;1132.43
1122.00;1134.70
1124.00;1130.58
1126.00;1129.72
1128.00;1132.17
1130.00;1125.92
1132.00;1129.04
1134.00;1125.33
1136.00;1126.86
1138.00;1123.25
1140.00;1121.27
1142.00;1115.54
1144.00;1121.12
1146.00;1122.74
1148.00;1120.53
1150.00;1121.06
1152.00;1120.65
1154.00;1125.45
1156.00;1134.63
1158.00;1132.81
1160.00;1131.56
1162.00;1135.90
1164.00;1128.11
1166.00;1133.56
1168.00;1132.25
1170.00;1126.90
1172.00;1125.88
1174.00;1138.20
1176.00;1137.66
1178.00;1132.78
1180.00;1133.21
1182.00;1136.30
1184.00;1135.46
1186.00;1132.49
1188.00;1134.11
1190.00;1138.27
1192.00;1126.60
1194.00;1128.34
1196.00;1131.62
1198.00;1134.23
1200.00;1133.91
1202.00;1138.01
1204.00;1138.35
1206.00;1138.85
1208.00;1140.53
1210.00;1143.56
1212.00;1139.30
1214.00;1130.09
1216.00;1138.18
1218.00;1140.61
1220.00;1140.10
1222.00;1143.74
1224.00;1147.33
1226.00;1155.54
1228.00;1162.07
1230.00;1172.79
1232.00;1165.72
1234.00;1176.52
1236.00;1181.35
1238.00;1189.52
1240.00;1186.90
1242.00;1191.35
1244.00;1197.22
1246.00;1195.75
1248.00;1195.54
1250.00;1191.92
1252.00;1185.89
1254.00;1189.72
1256.00;1186.92
1258.00;1184.73
1260.00;1185.16
1262.00;1182.29
1264.00;1190.90
1266.00;1194.76
1268.00;1183.64
1270.00;1185.68
1272.00;1185.51
1274.00;1187.27
1276.00;1187.93
1278.00;1178.86
1280.00;1180.31
1282.00;1172.52
1284.00;1166.74
1286.00;1164.22
1288.00;1161.77
1290.00;1163.96
1292.00;1156.16
1294.00;1157.03
1296.00;1155.58
1298.00;1154.64
1300.00;1155.67
1302.00;1157.47
1304.00;1158.11
1306.00;1156.39
1308.00;1157.45
1310.00;1155.52
1312.00;1159.65
1314.00;1151.54
1316.00;1158.71
1318.00;1156.97
1320.00;1160.14
1322.00;1155.10
1324.00;1148.73
1326.00;1143.31
1328.00;1153.77
1330.00;1149.40
1332.00;1147.02
1334.00;1152.47
1336.00;1151.99
1338.00;1147.91
1340.00;1153.25
1342.00;1148.08
1344.00;1147.28
1346.00;1147.19
1348.00;1140.68
1350.00;1140.31
1352.00;1138.38
1354.00;1144.75
1356.00;1132.54
1358.00;1132.64
1360.00;1132.97
1362.00;1136.50
1364.00;1132.62
1366.00;1137.06
1368.00;1142.20
1370.00;1131.41
1372.00;1145.14
1374.00;1148.54
1376.00;1142.28
1378.00;1144.82
1380.00;1151.24
1382.00;1147.24
1384.00;1147.93
1386.00;1155.00
1388.00;1152.08
1390.00;1148.82
1392.00;1146.77
1394.00;1155.35
1396.00;1147.79
1398.00;1152.50
1400.00;1154.32
1402.00;1155.74
1404.00;1149.31
1406.00;1149.06
1408.00;1148.27
1410.00;1150.12
1412.00;1154.45
1414.00;1157.26
1416.00;1150.48
1418.00;1157.66
1420.00;1160.89
1422.00;1163.83
1424.00;1166.72
1426.00;1165.56
1428.00;1169.51
1430.00;1162.15
1432.00;1166.52
1434.00;1164.19
1436.00;1172.64
1438.00;1185.02
1440.00;1193.05
1442.00;1195.29
1444.00;1202.62
1446.00;1209.81
1448.00;1212.87
1450.00;1214.31
1452.00;1220.29
1454.00;1216.94
1456.00;1210.24
1458.00;1205.47
1460.00;1206.72
1462.00;1191.57
1464.00;1191.29
1466.00;1182.08
1468.00;1174.03
1470.00;1160.05
1472.00;1159.78
1474.00;1158.43
1476.00;1141.94
1478.00;1137.10
1480.00;1130.90
1482.00;1132.89
1484.00;1123.26
1486.00;1118.03
1488.00;1112.62
1490.00;1112.69
1492.00;1107.99
1494.00;1111.84
1496.00;1104.71
1498.00;1099.10
1500.00;1100.70
1502.00;1102.92
1504.00;1098.40
1506.00;1102.54
1508.00;1100.41
1510.00;1104.93
1512.00;1096.55
1514.00;1102.65
1516.00;1099.50
1518.00;1096.30
1520.00;1098.69
1522.00;1099.23
1524.00;1099.16
1526.00;1096.37
1528.00;1104.34
1530.00;1101.26
1532.00;1104.56
1534.00;1105.82
1536.00;1098.92
1538.00;1100.71
1540.00;1098.85
1542.00;1106.22
1544.00;1094.38
1546.00;1103.51
1548.00;1100.57
1550.00;1092.79
1552.00;1099.35
1554.00;1106.62
1556.00;1103.13
1558.00;1104.70
1560.00;1103.28
1562.00;1103.04
1564.00;1109.40
1566.00;1105.82
1568.00;1094.55
1570.00;1096.17
1572.00;1097.03
1574.00;1103.75
1576.00;1103.84
1578.00;1110.34
1580.00;1102.67
1582.00;1110.67
1584.00;1105.00
1586.00;1104.65
1588.00;1102.93
1590.00;1103.70
1592.00;1104.90
1594.00;1104.62
1596.00;1112.99
1598.00;1110.40
1600.00;1121.65
1602.00;1131.01
1604.00;1112.47
1606.00;1118.36
1608.00;1125.83
1610.00;1126.06
1612.00;1123.69
1614.00;1111.66
1616.00;1113.87
1618.00;1119.75
1620.00;1129.55
1622.00;1141.15
1624.00;1136.62
1626.00;1133.02
1628.00;1142.99
1630.00;1148.15
1632.00;1151.34
1634.00;1155.20
1636.00;1149.20
1638.00;1149.61
1640.00;1160.66
1642.00;1158.72
1644.00;1155.36
1646.00;1159.15
1648.00;1166.41
1650.00;1163.61
1652.00;1157.00
1654.00;1157.24
1656.00;1165.47
1658.00;1168.11
1660.00;1168.16
1662.00;1179.60
1664.00;1180.16
1666.00;1176.08
1668.00;1183.18
1670.00;1174.83
1672.00;1180.78
1674.00;1170.22
1676.00;1179.37
1678.00;1169.82
1680.00;1174.24
1682.00;1166.21
1684.00;1168.14
1686.00;1163.02
1688.00;1154.01
1690.00;1144.19
1692.00;1141.51
1694.00;1131.09
1696.00;1137.43
1698.00;1122.31
1700.00;1116.59
1702.00;1107.98
1704.00;1102.33
1706.00;1098.36
1708.00;1095.33
1710.00;1088.60
1712.00;1083.80
1714.00;1079.14
1716.00;1091.72
1718.00;1093.21
1720.00;1089.78
1722.00;1071.16
1724.00;1093.12
1726.00;1082.72
1728.00;1074.15
1730.00;1073.12
1732.00;1066.88
1734.00;1074.11
1736.00;1075.33
1738.00;1063.18
1740.00;1075.56
1742.00;1077.65
1744.00;1075.37
1746.00;1079.72
1748.00;1079.27
1750.00;1074.86
1752.00;1082.31
1754.00;1079.63
1756.00;1086.70
1758.00;1091.83
1760.00;1084.97
1762.00;1081.15
1764.00;1077.10
1766.00;1080.86
1768.00;1073.57
1770.00;1071.69
1772.00;1079.39
1774.00;1082.16
1776.00;1075.89
1778.00;1081.88
1780.00;1079.72
1782.00;1079.32
1784.00;1082.01
1786.00;1069.87
1788.00;1066.66
1790.00;1068.78
1792.00;1073.04
1794.00;1074.54
1796.00;1076.43
1798.00;1071.78
1800.00;1072.04
1802.00;1073.80
1804.00;1064.72
1806.00;1073.45
1808.00;1073.23
1810.00;1083.06
1812.00;1063.12
1814.00;1073.67
1816.00;1069.69
1818.00;1075.40
1820.00;1065.62
1822.00;1070.24
1824.00;1061.99
1826.00;1076.59
1828.00;1066.72
1830.00;1063.22
1832.00;1066.68
1834.00;1064.25
1836.00;1060.18
1838.00;1071.19
1840.00;1057.23
1842.00;1074.95
1844.00;1066.85
1846.00;1069.99
1848.00;1069.12
1850.00;1059.60
1852.00;1067.44
1854.00;1058.05
1856.00;1069.15
1858.00;1070.91
1860.00;1062.36
1862.00;1065.47
1864.00;1061.27
1866.00;1065.19
1868.00;1058.28
1870.00;1059.54
1872.00;1055.87
1874.00;1052.74
1876.00;1041.33
1878.00;1058.26
1880.00;1057.58
1882.00;1056.30
1884.00;1067.32
1886.00;1071.20
1888.00;1071.56
1890.00;1059.50
1892.00;1053.29
1894.00;1046.54
1896.00;1052.98
1898.00;1062.70
1900.00;1057.01
1902.00;1055.57
1904.00;1058.09
1906.00;1050.56
1908.00;1046.33
1910.00;1062.46
1912.00;1048.43
1914.00;1055.13
1916.00;1056.64
1918.00;1051.65
1920.00;1056.32
1922.00;1064.90
1924.00;1062.02
1926.00;1061.35
1928.00;1053.72
1930.00;1051.55
1932.00;1056.22
1934.00;1060.97
1936.00;1058.82
1938.00;1061.93
1940.00;1062.90
1942.00;1064.75
1944.00;1060.16
1946.00;1054.31
1948.00;1063.78
1950.00;1061.32
1952.00;1060.06
1954.00;1056.41
1956.00;1053.23
1958.00;1048.43
1960.00;1052.92
1962.00;1048.56
1964.00;1049.50
1966.00;1067.94
1968.00;1061.70
1970.00;1053.08
1972.00;1047.25
1974.00;1045.38
1976.00;1056.04
1978.00;1031.88
1980.00;1047.06
1982.00;1049.69
1984.00;1050.01
1986.00;1049.53
1988.00;1062.61
1990.00;1056.01
1992.00;1047.48
1994.00;1049.47
1996.00;1057.69
1998.00;1063.04
2000.00;1056.16
2002.00;1050.60
2004.00;1051.90
2006.00;1056.19
2008.00;1058.17
2010.00;1047.52
2012.00;1061.79
2014.00;1054.85
2016.00;1051.18
2018.00;1048.87
2020.00;1051.33
2022.00;1053.47
2024.00;1045.20
2026.00;1052.74
2028.00;1036.85
2030.00;1047.18
2032.00;1058.24
2034.00;1049.44
2036.00;1052.41
2038.00;1063.36
2040.00;1053.49
2042.00;1050.97
2044.00;1039.51
2046.00;1054.90
2048.00;1041.75
2050.00;1057.30
2052.00;1046.87
2054.00;1064.92
2056.00;1056.31
2058.00;1046.17
2060.00;1045.44
2062.00;1040.75
2064.00;1049.00
2066.00;1038.70
2068.00;1051.70
2070.00;1040.32
2072.00;1047.40
2074.00;1047.40
2076.00;1033.24
2078.00;1043.82
2080.00;1058.48
2082.00;1054.84
2084.00;1052.48
2086.00;1046.64
2088.00;1046.16
2090.00;1055.12
2092.00;1046.70
2094.00;1046.64
2096.00;1048.81
2098.00;1042.20
2100.00;1061.79
2102.00;1060.95
2104.00;1044.49
2106.00;1054.58
2108.00;1035.18
2110.00;1038.99
2112.00;1033.15
2114.00;1036.02
2116.00;1050.35
2118.00;1051.30
2120.00;1044.46
2122.00;1046.00
2124.00;1032.58
2126.00;1036.12
2128.00;1039.12
2130.00;1025.37
2132.00;1048.32
2134.00;1036.46
2136.00;1026.13
2138.00;1046.49
2140.00;1041.69
2142.00;1037.31
2144.00;1032.37
2146.00;1034.98
2148.00;1043.92
2150.00;1040.41
2152.00;1040.96
2154.00;1036.33
2156.00;1041.16
2158.00;1026.74
2160.00;1024.78
2162.00;1036.69
2164.00;1046.08
2166.00;1033.03
2168.00;1026.44
2170.00;1023.35
2172.00;1039.01
2174.00;1047.07
2176.00;1035.54
2178.00;1055.07
2180.00;1032.82
2182.00;1033.37
2184.00;1029.70
2186.00;1042.87
2188.00;1046.32
2190.00;1030.62
2192.00;1037.58
2194.00;1047.54
2196.00;1043.42
2198.00;1034.83
2200.00;1038.60
2202.00;1032.29
2204.00;1047.44
2206.00;1052.23
2208.00;1031.61
2210.00;1034.16
2212.00;1022.58
2214.00;1038.58
2216.00;1034.21
2218.00;1034.71
2220.00;1044.83
2222.00;1026.40
2224.00;1051.96
2226.00;1030.50
2228.00;1026.19
2230.00;1033.86
2232.00;1014.20
2234.00;1034.38
2236.00;1021.18
2238.00;1035.21
2240.00;1023.83
2242.00;1047.79
2244.00;1017.85
2246.00;1037.80
2248.00;1037.03
2250.00;1023.52
2252.00;1034.60
2254.00;1012.62
2256.00;1035.17
2258.00;1039.10
2260.00;1019.17
2262.00;1020.92
2264.00;1026.52
2266.00;1025.07
2268.00;1026.09
2270.00;1029.15
2272.00;1033.89
2274.00;1026.32
2276.00;1011.31
2278.00;1016.07
2280.00;1010.22
2282.00;1012.38
2284.00;1042.78
2286.00;1021.47
2288.00;1026.33
2290.00;1016.19
2292.00;1019.33
2294.00;1025.51
2296.00;1021.97
2298.00;1012.98
2300.00;1027.35
[ANALYSIS RESULT]
Analysis_Type;None
