AP Cora 5001
Software_Version;1.4.1
[SAMPLE]
Sample_Name;Sample2_woven_3
Method;
[PARAMETERS]
Instrument_Type;Cora 5001
Instrument_SN;99119713
Last_SST;5/23/2024 9:27:06 AM +00:00
User_Name;labmanager
Measurement_Started;5/23/2024 3:39:25 PM
Measurement_Finished;5/23/2024 3:40:26 PM
Measurement_Saved;5/23/2024 3:40:26 PM
Wavelength;785
Laser_Power;30
Auto_Exposure;False
Exposure_Time;10000
Averaged_Spectra;3
Probe_Type;Regular Probe (785 nm)
Probe_SN;99101107
Dark_Background;True
User_Background_Spectrum;
Spike_Removal;True
Baseline_Correction;False
Smoothing;False
Normalization;None
[SPECTRUM QUALITY]
Quality_Saturation;False
Quality_SBR;NaN
Quality_Temperature;False
[SPECTRUM]
100.00;10489.26
102.00;10259.95
104.00;9965.36
106.00;9655.14
108.00;9277.83
110.00;8863.11
112.00;8442.50
114.00;7995.42
116.00;7519.41
118.00;7042.46
120.00;6584.69
122.00;6141.29
124.00;5722.28
126.00;5330.74
128.00;4965.71
130.00;4638.85
132.00;4344.14
134.00;4069.09
136.00;3824.02
138.00;3608.00
140.00;3404.51
142.00;3223.88
144.00;3074.94
146.00;2938.31
148.00;2819.36
150.00;2722.30
152.00;2638.77
154.00;2567.37
156.00;2504.32
158.00;2457.04
160.00;2417.65
162.00;2385.31
164.00;2360.80
166.00;2336.74
168.00;2318.36
170.00;2299.10
172.00;2281.13
174.00;2270.52
176.00;2257.86
178.00;2250.57
180.00;2242.68
182.00;2222.91
184.00;2212.76
186.00;2208.86
188.00;2195.33
190.00;2185.98
192.00;2177.48
194.00;2173.00
196.00;2162.29
198.00;2156.58
200.00;2147.74
202.00;2147.45
204.00;2152.06
206.00;2152.99
208.00;2149.35
210.00;2145.84
212.00;2152.20
214.00;2153.76
216.00;2147.84
218.00;2147.64
220.00;2149.91
222.00;2148.56
224.00;2145.53
226.00;2147.27
228.00;2146.36
230.00;2146.45
232.00;2148.49
234.00;2146.75
236.00;2147.97
238.00;2146.16
240.00;2145.26
242.00;2151.83
244.00;2152.92
246.00;2155.01
248.00;2158.21
250.00;2162.62
252.00;2158.35
254.00;2159.59
256.00;2161.59
258.00;2168.66
260.00;2167.09
262.00;2165.88
264.00;2165.69
266.00;2167.97
268.00;2177.51
270.00;2170.69
272.00;2167.40
274.00;2178.94
276.00;2174.16
278.00;2168.28
280.00;2167.55
282.00;2164.53
284.00;2169.93
286.00;2172.74
288.00;2179.94
290.00;2178.33
292.00;2180.10
294.00;2178.21
296.00;2175.16
298.00;2177.57
300.00;2182.02
302.00;2177.99
304.00;2169.65
306.00;2166.33
308.00;2172.57
310.00;2181.45
312.00;2178.15
314.00;2174.32
316.00;2173.41
318.00;2169.66
320.00;2162.17
322.00;2167.64
324.00;2168.10
326.00;2165.33
328.00;2173.48
330.00;2176.08
332.00;2171.75
334.00;2175.10
336.00;2174.81
338.00;2171.37
340.00;2172.38
342.00;2168.43
344.00;2166.55
346.00;2167.47
348.00;2166.50
350.00;2168.28
352.00;2172.67
354.00;2173.51
356.00;2163.05
358.00;2158.39
360.00;2162.74
362.00;2164.50
364.00;2167.70
366.00;2163.12
368.00;2160.50
370.00;2165.15
372.00;2166.24
374.00;2161.10
376.00;2166.87
378.00;2165.57
380.00;2168.11
382.00;2175.97
384.00;2180.61
386.00;2181.73
388.00;2175.61
390.00;2176.66
392.00;2173.89
394.00;2177.68
396.00;2176.91
398.00;2186.50
400.00;2185.97
402.00;2184.88
404.00;2189.86
406.00;2193.79
408.00;2195.31
410.00;2195.84
412.00;2202.36
414.00;2208.50
416.00;2208.59
418.00;2214.15
420.00;2215.67
422.00;2225.22
424.00;2231.19
426.00;2242.62
428.00;2241.71
430.00;2245.44
432.00;2252.25
434.00;2248.01
436.00;2249.28
438.00;2248.92
440.00;2250.99
442.00;2254.97
444.00;2247.39
446.00;2239.11
448.00;2245.09
450.00;2237.03
452.00;2232.46
454.00;2224.19
456.00;2222.56
458.00;2219.12
460.00;2215.11
462.00;2207.32
464.00;2207.13
466.00;2205.84
468.00;2204.73
470.00;2206.41
472.00;2202.75
474.00;2191.42
476.00;2187.78
478.00;2182.47
480.00;2179.40
482.00;2170.16
484.00;2170.40
486.00;2173.16
488.00;2179.25
490.00;2182.42
492.00;2189.23
494.00;2180.23
496.00;2182.63
498.00;2178.61
500.00;2177.97
502.00;2181.96
504.00;2174.06
506.00;2172.06
508.00;2174.23
510.00;2174.86
512.00;2171.27
514.00;2174.01
516.00;2176.05
518.00;2188.61
520.00;2190.80
522.00;2193.42
524.00;2195.14
526.00;2192.67
528.00;2200.62
530.00;2200.06
532.00;2200.87
534.00;2197.99
536.00;2197.71
538.00;2192.45
540.00;2197.37
542.00;2194.91
544.00;2200.94
546.00;2202.55
548.00;2203.23
550.00;2203.75
552.00;2206.14
554.00;2205.53
556.00;2202.99
558.00;2206.38
560.00;2209.51
562.00;2210.89
564.00;2214.52
566.00;2217.64
568.00;2225.49
570.00;2225.25
572.00;2232.34
574.00;2237.81
576.00;2240.21
578.00;2247.48
580.00;2253.16
582.00;2256.90
584.00;2256.18
586.00;2249.84
588.00;2257.71
590.00;2254.84
592.00;2250.54
594.00;2255.88
596.00;2254.27
598.00;2238.93
600.00;2227.88
602.00;2238.11
604.00;2220.23
606.00;2215.33
608.00;2216.25
610.00;2217.77
612.00;2212.06
614.00;2207.30
616.00;2207.70
618.00;2204.62
620.00;2201.16
622.00;2202.29
624.00;2192.37
626.00;2186.48
628.00;2178.56
630.00;2173.52
632.00;2172.26
634.00;2169.95
636.00;2167.54
638.00;2161.75
640.00;2162.99
642.00;2168.73
644.00;2158.61
646.00;2153.53
648.00;2153.49
650.00;2153.22
652.00;2156.26
654.00;2155.13
656.00;2164.41
658.00;2163.09
660.00;2165.60
662.00;2163.93
664.00;2163.88
666.00;2163.06
668.00;2161.29
670.00;2166.39
672.00;2161.63
674.00;2162.85
676.00;2157.62
678.00;2152.74
680.00;2145.34
682.00;2147.35
684.00;2145.51
686.00;2147.93
688.00;2146.59
690.00;2144.55
692.00;2154.41
694.00;2158.26
696.00;2158.27
698.00;2155.92
700.00;2155.34
702.00;2160.98
704.00;2153.47
706.00;2151.65
708.00;2149.11
710.00;2143.44
712.00;2143.32
714.00;2145.55
716.00;2147.70
718.00;2145.73
720.00;2140.53
722.00;2138.90
724.00;2142.94
726.00;2144.98
728.00;2141.96
730.00;2141.27
732.00;2141.19
734.00;2136.52
736.00;2135.17
738.00;2142.21
740.00;2135.03
742.00;2130.84
744.00;2127.95
746.00;2131.74
748.00;2130.74
750.00;2126.55
752.00;2128.36
754.00;2129.85
756.00;2130.82
758.00;2129.49
760.00;2126.70
762.00;2124.51
764.00;2121.97
766.00;2121.24
768.00;2120.01
770.00;2116.04
772.00;2118.21
774.00;2125.08
776.00;2118.80
778.00;2116.72
780.00;2114.85
782.00;2114.65
784.00;2117.53
786.00;2120.95
788.00;2113.29
790.00;2116.41
792.00;2118.25
794.00;2112.99
796.00;2110.48
798.00;2113.24
800.00;2111.31
802.00;2111.18
804.00;2115.19
806.00;2112.54
808.00;2119.52
810.00;2122.07
812.00;2131.79
814.00;2134.49
816.00;2126.95
818.00;2121.15
820.00;2112.10
822.00;2112.18
824.00;2108.06
826.00;2099.41
828.00;2104.56
830.00;2118.03
832.00;2113.84
834.00;2114.18
836.00;2112.01
838.00;2106.77
840.00;2108.19
842.00;2106.34
844.00;2118.40
846.00;2131.31
848.00;2139.96
850.00;2134.25
852.00;2140.33
854.00;2134.55
856.00;2137.32
858.00;2129.88
860.00;2125.81
862.00;2126.40
864.00;2119.70
866.00;2117.42
868.00;2120.07
870.00;2116.35
872.00;2107.88
874.00;2114.96
876.00;2118.20
878.00;2129.34
880.00;2122.77
882.00;2110.89
884.00;2106.34
886.00;2101.93
888.00;2103.31
890.00;2108.73
892.00;2101.05
894.00;2102.70
896.00;2103.83
898.00;2100.43
900.00;2097.14
902.00;2095.19
904.00;2089.66
906.00;2088.97
908.00;2084.68
910.00;2092.87
912.00;2103.28
914.00;2103.45
916.00;2118.92
918.00;2121.01
920.00;2122.73
922.00;2122.98
924.00;2126.91
926.00;2124.56
928.00;2126.01
930.00;2134.20
932.00;2142.97
934.00;2159.61
936.00;2174.78
938.00;2187.31
940.00;2213.65
942.00;2226.41
944.00;2257.07
946.00;2304.17
948.00;2355.43
950.00;2433.07
952.00;2500.67
954.00;2565.39
956.00;2659.57
958.00;2705.06
960.00;2723.66
962.00;2694.19
964.00;2623.08
966.00;2529.88
968.00;2431.97
970.00;2341.69
972.00;2270.55
974.00;2209.61
976.00;2166.08
978.00;2126.85
980.00;2103.03
982.00;2082.42
984.00;2074.62
986.00;2076.42
988.00;2065.16
990.00;2062.82
992.00;2057.59
994.00;2048.24
996.00;2052.77
998.00;2058.96
1000.00;2065.97
1002.00;2072.47
1004.00;2073.44
1006.00;2064.67
1008.00;2065.87
1010.00;2065.15
1012.00;2056.63
1014.00;2054.06
1016.00;2058.33
1018.00;2056.23
1020.00;2058.32
1022.00;2062.19
1024.00;2062.97
1026.00;2065.37
1028.00;2072.73
1030.00;2066.01
1032.00;2062.18
1034.00;2066.32
1036.00;2066.61
1038.00;2073.47
1040.00;2071.60
1042.00;2066.96
1044.00;2067.63
1046.00;2071.94
1048.00;2071.00
1050.00;2069.87
1052.00;2063.96
1054.00;2066.70
1056.00;2066.95
1058.00;2079.04
1060.00;2079.42
1062.00;2083.93
1064.00;2096.68
1066.00;2104.15
1068.00;2110.05
1070.00;2114.05
1072.00;2106.81
1074.00;2107.70
1076.00;2093.32
1078.00;2075.61
1080.00;2063.90
1082.00;2044.88
1084.00;2035.66
1086.00;2034.52
1088.00;2018.23
1090.00;2011.82
1092.00;2006.39
1094.00;1999.41
1096.00;1996.66
1098.00;1995.32
1100.00;1987.03
1102.00;1982.21
1104.00;1982.64
1106.00;1980.13
1108.00;1979.35
1110.00;1972.47
1112.00;1971.12
1114.00;1972.24
1116.00;1960.88
1118.00;1951.30
1120.00;1952.29
1122.00;1948.24
1124.00;1944.13
1126.00;1949.04
1128.00;1954.34
1130.00;1947.07
1132.00;1944.79
1134.00;1943.70
1136.00;1937.97
1138.00;1937.93
1140.00;1931.92
1142.00;1934.92
1144.00;1927.05
1146.00;1930.83
1148.00;1928.07
1150.00;1928.25
1152.00;1919.09
1154.00;1918.64
1156.00;1927.90
1158.00;1921.49
1160.00;1921.00
1162.00;1923.59
1164.00;1923.35
1166.00;1917.56
1168.00;1921.77
1170.00;1910.91
1172.00;1914.84
1174.00;1921.17
1176.00;1922.34
1178.00;1919.46
1180.00;1920.05
1182.00;1918.30
1184.00;1911.28
1186.00;1917.71
1188.00;1912.30
1190.00;1913.62
1192.00;1910.71
1194.00;1909.84
1196.00;1915.20
1198.00;1902.82
1200.00;1910.11
1202.00;1909.30
1204.00;1912.16
1206.00;1913.87
1208.00;1909.58
1210.00;1902.31
1212.00;1912.60
1214.00;1904.52
1216.00;1902.90
1218.00;1900.25
1220.00;1892.64
1222.00;1894.81
1224.00;1895.96
1226.00;1903.61
1228.00;1902.20
1230.00;1918.45
1232.00;1922.49
1234.00;1924.42
1236.00;1919.29
1238.00;1934.32
1240.00;1938.90
1242.00;1939.53
1244.00;1926.21
1246.00;1930.24
1248.00;1934.47
1250.00;1927.83
1252.00;1921.41
1254.00;1912.99
1256.00;1915.58
1258.00;1902.58
1260.00;1902.20
1262.00;1913.24
1264.00;1913.20
1266.00;1901.90
1268.00;1912.31
1270.00;1910.54
1272.00;1902.62
1274.00;1900.13
1276.00;1892.70
1278.00;1894.45
1280.00;1897.72
1282.00;1883.57
1284.00;1889.93
1286.00;1886.91
1288.00;1880.48
1290.00;1881.35
1292.00;1877.67
1294.00;1868.13
1296.00;1865.88
1298.00;1861.55
1300.00;1864.82
1302.00;1861.37
1304.00;1863.06
1306.00;1860.16
1308.00;1856.39
1310.00;1847.91
1312.00;1855.14
1314.00;1851.85
1316.00;1848.07
1318.00;1847.85
1320.00;1856.71
1322.00;1856.21
1324.00;1849.20
1326.00;1847.55
1328.00;1844.87
1330.00;1850.37
1332.00;1843.79
1334.00;1829.43
1336.00;1840.31
1338.00;1839.65
1340.00;1838.77
1342.00;1846.65
1344.00;1835.88
1346.00;1833.60
1348.00;1838.76
1350.00;1830.48
1352.00;1823.01
1354.00;1824.49
1356.00;1826.30
1358.00;1820.90
1360.00;1819.22
1362.00;1811.47
1364.00;1812.51
1366.00;1814.27
1368.00;1814.76
1370.00;1814.20
1372.00;1814.75
1374.00;1828.33
1376.00;1819.86
1378.00;1813.50
1380.00;1815.42
1382.00;1823.03
1384.00;1817.53
1386.00;1814.48
1388.00;1813.95
1390.00;1813.30
1392.00;1816.14
1394.00;1815.00
1396.00;1810.50
1398.00;1801.73
1400.00;1813.40
1402.00;1809.82
1404.00;1807.14
1406.00;1798.41
1408.00;1808.35
1410.00;1798.95
1412.00;1800.31
1414.00;1801.76
1416.00;1785.67
1418.00;1794.80
1420.00;1800.48
1422.00;1802.43
1424.00;1803.13
1426.00;1799.64
1428.00;1805.93
1430.00;1801.98
1432.00;1795.33
1434.00;1800.77
1436.00;1801.34
1438.00;1807.20
1440.00;1808.46
1442.00;1817.55
1444.00;1818.05
1446.00;1828.17
1448.00;1828.23
1450.00;1824.06
1452.00;1822.19
1454.00;1818.28
1456.00;1814.31
1458.00;1806.62
1460.00;1808.39
1462.00;1798.60
1464.00;1789.42
1466.00;1784.84
1468.00;1790.83
1470.00;1770.30
1472.00;1769.33
1474.00;1760.13
1476.00;1744.91
1478.00;1743.67
1480.00;1734.75
1482.00;1728.94
1484.00;1729.44
1486.00;1725.10
1488.00;1716.65
1490.00;1712.54
1492.00;1708.64
1494.00;1706.67
1496.00;1701.84
1498.00;1700.75
1500.00;1697.63
1502.00;1702.20
1504.00;1698.88
1506.00;1692.90
1508.00;1695.58
1510.00;1700.19
1512.00;1690.62
1514.00;1688.91
1516.00;1687.71
1518.00;1678.83
1520.00;1681.14
1522.00;1677.69
1524.00;1683.13
1526.00;1668.49
1528.00;1675.43
1530.00;1682.08
1532.00;1675.86
1534.00;1672.95
1536.00;1681.16
1538.00;1672.35
1540.00;1672.10
1542.00;1671.52
1544.00;1667.42
1546.00;1670.86
1548.00;1662.49
1550.00;1668.26
1552.00;1657.38
1554.00;1655.00
1556.00;1653.04
1558.00;1654.96
1560.00;1659.54
1562.00;1650.09
1564.00;1654.35
1566.00;1646.51
1568.00;1651.39
1570.00;1659.75
1572.00;1664.53
1574.00;1646.45
1576.00;1645.22
1578.00;1636.87
1580.00;1642.30
1582.00;1642.17
1584.00;1649.98
1586.00;1642.60
1588.00;1646.29
1590.00;1640.62
1592.00;1643.34
1594.00;1642.31
1596.00;1638.90
1598.00;1647.84
1600.00;1649.78
1602.00;1648.53
1604.00;1633.86
1606.00;1642.21
1608.00;1639.69
1610.00;1633.01
1612.00;1629.27
1614.00;1623.45
1616.00;1623.29
1618.00;1624.39
1620.00;1637.24
1622.00;1628.28
1624.00;1630.42
1626.00;1636.57
1628.00;1633.38
1630.00;1634.19
1632.00;1633.29
1634.00;1637.59
1636.00;1638.18
1638.00;1644.25
1640.00;1642.43
1642.00;1637.20
1644.00;1635.52
1646.00;1641.65
1648.00;1637.19
1650.00;1640.08
1652.00;1638.83
1654.00;1629.00
1656.00;1632.76
1658.00;1633.84
1660.00;1634.94
1662.00;1633.80
1664.00;1636.62
1666.00;1628.72
1668.00;1627.40
1670.00;1633.68
1672.00;1640.46
1674.00;1616.06
1676.00;1618.42
1678.00;1608.23
1680.00;1614.29
1682.00;1605.04
1684.00;1599.06
1686.00;1588.33
1688.00;1582.22
1690.00;1577.75
1692.00;1571.22
1694.00;1563.24
1696.00;1560.20
1698.00;1545.57
1700.00;1546.64
1702.00;1549.54
1704.00;1540.47
1706.00;1540.99
1708.00;1530.27
1710.00;1534.56
1712.00;1526.07
1714.00;1531.48
1716.00;1521.41
1718.00;1515.00
1720.00;1520.06
1722.00;1503.75
1724.00;1520.06
1726.00;1513.11
1728.00;1510.18
1730.00;1505.87
1732.00;1493.22
1734.00;1497.01
1736.00;1487.68
1738.00;1484.21
1740.00;1489.13
1742.00;1475.81
1744.00;1482.79
1746.00;1486.96
1748.00;1483.37
1750.00;1483.18
1752.00;1481.85
1754.00;1491.15
1756.00;1491.18
1758.00;1474.01
1760.00;1471.03
1762.00;1475.14
1764.00;1473.95
1766.00;1452.27
1768.00;1459.05
1770.00;1457.99
1772.00;1456.12
1774.00;1459.18
1776.00;1476.07
1778.00;1458.58
1780.00;1460.13
1782.00;1457.60
1784.00;1451.26
1786.00;1449.41
1788.00;1443.45
1790.00;1444.35
1792.00;1437.34
1794.00;1444.19
1796.00;1441.15
1798.00;1445.69
1800.00;1440.22
1802.00;1431.73
1804.00;1437.97
1806.00;1444.66
1808.00;1427.50
1810.00;1417.83
1812.00;1430.58
1814.00;1435.42
1816.00;1426.24
1818.00;1420.03
1820.00;1425.98
1822.00;1418.17
1824.00;1406.65
1826.00;1418.81
1828.00;1405.67
1830.00;1411.52
1832.00;1415.23
1834.00;1407.66
1836.00;1406.42
1838.00;1409.74
1840.00;1399.02
1842.00;1396.20
1844.00;1395.96
1846.00;1397.04
1848.00;1400.05
1850.00;1386.01
1852.00;1389.06
1854.00;1384.98
1856.00;1377.80
1858.00;1381.29
1860.00;1373.32
1862.00;1373.97
1864.00;1372.32
1866.00;1377.07
1868.00;1367.07
1870.00;1371.47
1872.00;1363.73
1874.00;1358.86
1876.00;1354.06
1878.00;1363.59
1880.00;1365.50
1882.00;1356.65
1884.00;1352.58
1886.00;1347.32
1888.00;1348.55
1890.00;1360.94
1892.00;1354.56
1894.00;1340.42
1896.00;1350.78
1898.00;1356.54
1900.00;1341.48
1902.00;1350.82
1904.00;1333.38
1906.00;1327.89
1908.00;1335.78
1910.00;1335.14
1912.00;1333.97
1914.00;1322.76
1916.00;1324.71
1918.00;1324.21
1920.00;1316.55
1922.00;1327.69
1924.00;1331.16
1926.00;1335.23
1928.00;1323.05
1930.00;1321.98
1932.00;1312.12
1934.00;1311.43
1936.00;1312.60
1938.00;1308.57
1940.00;1306.45
1942.00;1298.45
1944.00;1304.04
1946.00;1300.71
1948.00;1301.76
1950.00;1298.11
1952.00;1305.96
1954.00;1293.61
1956.00;1299.03
1958.00;1300.90
1960.00;1289.43
1962.00;1287.91
1964.00;1288.26
1966.00;1288.80
1968.00;1282.01
1970.00;1281.33
1972.00;1275.19
1974.00;1290.91
1976.00;1273.58
1978.00;1291.57
1980.00;1269.97
1982.00;1268.57
1984.00;1275.30
1986.00;1265.71
1988.00;1262.46
1990.00;1254.59
1992.00;1258.48
1994.00;1251.93
1996.00;1254.97
1998.00;1260.18
2000.00;1260.37
2002.00;1256.60
2004.00;1269.29
2006.00;1263.12
2008.00;1245.58
2010.00;1259.43
2012.00;1244.52
2014.00;1253.80
2016.00;1246.19
2018.00;1242.05
2020.00;1249.32
2022.00;1246.53
2024.00;1238.35
2026.00;1234.49
2028.00;1244.75
2030.00;1234.45
2032.00;1230.42
2034.00;1222.38
2036.00;1249.47
2038.00;1229.07
2040.00;1226.49
2042.00;1223.37
2044.00;1226.07
2046.00;1213.49
2048.00;1226.23
2050.00;1224.33
2052.00;1231.51
2054.00;1214.81
2056.00;1220.85
2058.00;1214.85
2060.00;1207.17
2062.00;1223.58
2064.00;1201.24
2066.00;1215.28
2068.00;1225.23
2070.00;1203.47
2072.00;1197.18
2074.00;1195.23
2076.00;1199.48
2078.00;1201.16
2080.00;1185.45
2082.00;1188.40
2084.00;1186.78
2086.00;1187.03
2088.00;1174.88
2090.00;1199.56
2092.00;1205.76
2094.00;1181.49
2096.00;1192.74
2098.00;1184.12
2100.00;1178.17
2102.00;1177.53
2104.00;1189.74
2106.00;1177.26
2108.00;1166.28
2110.00;1182.16
2112.00;1162.75
2114.00;1168.68
2116.00;1168.43
2118.00;1176.34
2120.00;1159.22
2122.00;1158.27
2124.00;1162.55
2126.00;1169.59
2128.00;1152.49
2130.00;1158.05
2132.00;1150.39
2134.00;1157.19
2136.00;1153.04
2138.00;1161.37
2140.00;1150.13
2142.00;1143.86
2144.00;1151.91
2146.00;1140.41
2148.00;1136.60
2150.00;1150.48
2152.00;1138.03
2154.00;1137.81
2156.00;1139.23
2158.00;1125.56
2160.00;1130.81
2162.00;1148.47
2164.00;1144.40
2166.00;1155.97
2168.00;1151.97
2170.00;1123.25
2172.00;1142.25
2174.00;1137.42
2176.00;1127.79
2178.00;1116.68
2180.00;1120.85
2182.00;1129.94
2184.00;1109.71
2186.00;1118.22
2188.00;1115.84
2190.00;1127.16
2192.00;1126.09
2194.00;1119.03
2196.00;1108.95
2198.00;1117.99
2200.00;1130.50
2202.00;1117.15
2204.00;1109.68
2206.00;1124.53
2208.00;1114.06
2210.00;1127.35
2212.00;1110.77
2214.00;1105.14
2216.00;1124.20
2218.00;1103.99
2220.00;1106.32
2222.00;1099.90
2224.00;1099.51
2226.00;1090.87
2228.00;1086.13
2230.00;1093.24
2232.00;1082.83
2234.00;1082.93
2236.00;1090.22
2238.00;1096.21
2240.00;1081.95
2242.00;1078.78
2244.00;1077.69
2246.00;1071.87
2248.00;1073.88
2250.00;1088.81
2252.00;1073.15
2254.00;1077.45
2256.00;1063.46
2258.00;1071.15
2260.00;1072.35
2262.00;1070.96
2264.00;1068.77
2266.00;1062.45
2268.00;1070.32
2270.00;1050.81
2272.00;1068.32
2274.00;1056.13
2276.00;1064.93
2278.00;1055.57
2280.00;1071.32
2282.00;1042.47
2284.00;1064.01
2286.00;1046.89
2288.00;1043.85
2290.00;1049.11
2292.00;1054.42
2294.00;1047.24
2296.00;1049.01
2298.00;1087.54
2300.00;1027.64
[ANALYSIS RESULT]
Analysis_Type;None
