AP Cora 5001
Software_Version;1.4.1
[SAMPLE]
Sample_Name;Sample1_haversian_1
Method;
[PARAMETERS]
Instrument_Type;Cora 5001
Instrument_SN;99119713
Last_SST;3/7/2024 1:00:25 PM +00:00
User_Name;labmanager
Measurement_Started;3/7/2024 3:11:14 PM
Measurement_Finished;3/7/2024 3:11:45 PM
Measurement_Saved;3/7/2024 3:11:45 PM
Wavelength;785
Laser_Power;30
Auto_Exposure;False
Exposure_Time;5000
Averaged_Spectra;3
Probe_Type;Regular Probe (785 nm)
Probe_SN;99101107
Dark_Background;True
User_Background_Spectrum;
Spike_Removal;True
Baseline_Correction;False
Smoothing;False
Normalization;None
[SPECTRUM QUALITY]
Quality_Saturation;False
Quality_SBR;NaN
Quality_Temperature;False
[SPECTRUM]
100.00;4421.03
102.00;4358.41
104.00;4285.00
106.00;4196.60
108.00;4082.35
110.00;3955.54
112.00;3820.09
114.00;3662.71
116.00;3518.26
118.00;3366.17
120.00;3209.08
122.00;3059.15
124.00;2927.91
126.00;2798.92
128.00;2680.41
130.00;2569.77
132.00;2465.87
134.00;2376.40
136.00;2292.63
138.00;2215.24
140.00;2147.30
142.00;2083.30
144.00;2028.97
146.00;1988.23
148.00;1944.76
150.00;1904.74
152.00;1889.22
154.00;1867.83
156.00;1845.32
158.00;1832.98
160.00;1817.92
162.00;1810.01
164.00;1809.48
166.00;1802.30
168.00;1799.35
170.00;1798.32
172.00;1795.84
174.00;1794.49
176.00;1789.49
178.00;1779.70
180.00;1769.56
182.00;1766.16
184.00;1764.24
186.00;1762.78
188.00;1756.03
190.00;1756.16
192.00;1753.37
194.00;1745.91
196.00;1745.32
198.00;1742.21
200.00;1729.38
202.00;1731.54
204.00;1738.22
206.00;1736.60
208.00;1734.60
210.00;1740.54
212.00;1737.30
214.00;1738.53
216.00;1747.01
218.00;1748.36
220.00;1746.18
222.00;1743.68
224.00;1745.55
226.00;1747.18
228.00;1745.56
230.00;1748.14
232.00;1753.32
234.00;1747.39
236.00;1753.35
238.00;1756.64
240.00;1757.56
242.00;1757.40
244.00;1762.60
246.00;1765.94
248.00;1766.73
250.00;1768.43
252.00;1769.29
254.00;1766.68
256.00;1770.61
258.00;1774.44
260.00;1775.73
262.00;1780.69
264.00;1779.27
266.00;1781.84
268.00;1780.59
270.00;1780.71
272.00;1781.88
274.00;1784.14
276.00;1788.98
278.00;1782.30
280.00;1787.90
282.00;1796.32
284.00;1800.03
286.00;1802.66
288.00;1797.62
290.00;1798.68
292.00;1795.57
294.00;1795.83
296.00;1797.41
298.00;1803.30
300.00;1793.35
302.00;1798.82
304.00;1801.17
306.00;1800.58
308.00;1804.09
310.00;1805.39
312.00;1803.17
314.00;1802.96
316.00;1806.08
318.00;1801.60
320.00;1797.71
322.00;1809.29
324.00;1811.36
326.00;1809.98
328.00;1809.51
330.00;1812.06
332.00;1811.45
334.00;1806.50
336.00;1807.61
338.00;1810.56
340.00;1809.25
342.00;1814.18
344.00;1817.45
346.00;1815.09
348.00;1818.32
350.00;1819.96
352.00;1820.57
354.00;1816.65
356.00;1816.24
358.00;1816.34
360.00;1809.93
362.00;1818.80
364.00;1818.51
366.00;1810.15
368.00;1806.46
370.00;1812.44
372.00;1815.53
374.00;1817.74
376.00;1823.13
378.00;1826.92
380.00;1828.49
382.00;1826.38
384.00;1827.44
386.00;1831.18
388.00;1831.31
390.00;1835.74
392.00;1834.54
394.00;1834.84
396.00;1832.40
398.00;1834.19
400.00;1833.97
402.00;1829.81
404.00;1836.34
406.00;1839.41
408.00;1834.71
410.00;1844.75
412.00;1851.90
414.00;1847.58
416.00;1855.67
418.00;1858.21
420.00;1863.14
422.00;1867.75
424.00;1871.18
426.00;1873.01
428.00;1871.54
430.00;1868.55
432.00;1867.18
434.00;1871.07
436.00;1870.15
438.00;1869.31
440.00;1874.60
442.00;1873.98
444.00;1877.57
446.00;1868.61
448.00;1868.14
450.00;1873.04
452.00;1867.78
454.00;1860.67
456.00;1861.33
458.00;1863.03
460.00;1862.71
462.00;1865.15
464.00;1858.86
466.00;1862.94
468.00;1862.90
470.00;1860.76
472.00;1859.73
474.00;1845.12
476.00;1844.53
478.00;1844.96
480.00;1836.93
482.00;1832.77
484.00;1843.69
486.00;1836.67
488.00;1839.69
490.00;1842.78
492.00;1854.54
494.00;1855.50
496.00;1852.26
498.00;1848.21
500.00;1851.66
502.00;1852.80
504.00;1848.93
506.00;1844.16
508.00;1844.52
510.00;1846.42
512.00;1844.70
514.00;1854.04
516.00;1855.19
518.00;1871.66
520.00;1866.57
522.00;1864.74
524.00;1863.73
526.00;1875.80
528.00;1873.88
530.00;1867.62
532.00;1872.47
534.00;1872.96
536.00;1870.06
538.00;1867.71
540.00;1869.63
542.00;1874.64
544.00;1870.92
546.00;1871.63
548.00;1869.58
550.00;1877.71
552.00;1876.31
554.00;1870.14
556.00;1875.51
558.00;1879.88
560.00;1883.59
562.00;1884.92
564.00;1888.85
566.00;1886.98
568.00;1886.69
570.00;1883.61
572.00;1887.70
574.00;1892.20
576.00;1890.69
578.00;1895.21
580.00;1900.90
582.00;1901.51
584.00;1903.30
586.00;1904.49
588.00;1900.29
590.00;1899.63
592.00;1900.41
594.00;1895.31
596.00;1899.88
598.00;1904.28
600.00;1888.32
602.00;1886.22
604.00;1886.39
606.00;1885.81
608.00;1883.37
610.00;1879.34
612.00;1880.22
614.00;1874.88
616.00;1879.93
618.00;1879.65
620.00;1878.02
622.00;1872.96
624.00;1867.76
626.00;1866.85
628.00;1865.30
630.00;1860.58
632.00;1858.71
634.00;1861.01
636.00;1858.70
638.00;1856.04
640.00;1859.29
642.00;1856.87
644.00;1850.78
646.00;1846.16
648.00;1842.06
650.00;1839.31
652.00;1843.12
654.00;1847.67
656.00;1850.06
658.00;1853.90
660.00;1855.90
662.00;1858.55
664.00;1855.12
666.00;1846.89
668.00;1844.29
670.00;1845.97
672.00;1847.56
674.00;1845.01
676.00;1844.57
678.00;1841.76
680.00;1839.53
682.00;1838.89
684.00;1843.63
686.00;1842.49
688.00;1842.24
690.00;1842.35
692.00;1843.45
694.00;1844.80
696.00;1846.43
698.00;1844.15
700.00;1847.92
702.00;1836.48
704.00;1833.85
706.00;1835.95
708.00;1830.92
710.00;1834.91
712.00;1830.79
714.00;1829.83
716.00;1836.35
718.00;1841.66
720.00;1834.69
722.00;1834.17
724.00;1837.96
726.00;1840.04
728.00;1837.28
730.00;1833.74
732.00;1835.21
734.00;1830.90
736.00;1831.22
738.00;1828.65
740.00;1828.83
742.00;1826.57
744.00;1824.54
746.00;1824.10
748.00;1822.43
750.00;1823.37
752.00;1825.31
754.00;1829.51
756.00;1819.51
758.00;1817.85
760.00;1823.29
762.00;1826.01
764.00;1824.59
766.00;1821.35
768.00;1814.87
770.00;1818.61
772.00;1815.09
774.00;1813.54
776.00;1814.89
778.00;1812.67
780.00;1810.82
782.00;1808.88
784.00;1811.17
786.00;1812.34
788.00;1809.98
790.00;1810.93
792.00;1809.10
794.00;1815.83
796.00;1815.64
798.00;1809.90
800.00;1812.28
802.00;1817.86
804.00;1815.95
806.00;1811.47
808.00;1818.98
810.00;1826.45
812.00;1825.42
814.00;1825.31
816.00;1826.79
818.00;1818.65
820.00;1814.92
822.00;1811.83
824.00;1808.17
826.00;1804.19
828.00;1802.85
830.00;1806.80
832.00;1812.76
834.00;1815.63
836.00;1811.50
838.00;1807.53
840.00;1811.76
842.00;1811.46
844.00;1815.92
846.00;1827.24
848.00;1832.75
850.00;1833.61
852.00;1829.42
854.00;1821.10
856.00;1829.14
858.00;1814.97
860.00;1819.47
862.00;1822.39
864.00;1821.83
866.00;1815.91
868.00;1816.21
870.00;1818.33
872.00;1813.79
874.00;1813.83
876.00;1815.40
878.00;1818.15
880.00;1815.98
882.00;1812.08
884.00;1815.57
886.00;1812.29
888.00;1813.15
890.00;1807.80
892.00;1806.30
894.00;1808.74
896.00;1809.07
898.00;1809.82
900.00;1804.72
902.00;1789.74
904.00;1791.83
906.00;1799.81
908.00;1799.13
910.00;1796.08
912.00;1804.65
914.00;1808.84
916.00;1814.68
918.00;1826.19
920.00;1824.48
922.00;1819.55
924.00;1819.57
926.00;1819.40
928.00;1812.86
930.00;1824.35
932.00;1823.95
934.00;1830.31
936.00;1845.03
938.00;1851.22
940.00;1861.76
942.00;1870.12
944.00;1884.07
946.00;1902.64
948.00;1930.14
950.00;1968.40
952.00;2009.75
954.00;2049.95
956.00;2089.50
958.00;2117.92
960.00;2131.29
962.00;2117.27
964.00;2085.27
966.00;2033.09
968.00;1984.73
970.00;1940.42
972.00;1896.02
974.00;1869.29
976.00;1840.83
978.00;1814.56
980.00;1801.79
982.00;1795.41
984.00;1787.11
986.00;1784.73
988.00;1777.01
990.00;1771.63
992.00;1773.38
994.00;1774.51
996.00;1775.46
998.00;1779.25
1000.00;1774.33
1002.00;1780.06
1004.00;1785.39
1006.00;1779.43
1008.00;1780.37
1010.00;1779.14
1012.00;1775.46
1014.00;1773.97
1016.00;1765.71
1018.00;1771.83
1020.00;1776.60
1022.00;1785.61
1024.00;1777.19
1026.00;1778.94
1028.00;1776.52
1030.00;1769.39
1032.00;1764.54
1034.00;1773.29
1036.00;1781.68
1038.00;1773.94
1040.00;1771.76
1042.00;1770.90
1044.00;1769.74
1046.00;1771.13
1048.00;1771.67
1050.00;1774.30
1052.00;1780.19
1054.00;1770.21
1056.00;1767.91
1058.00;1774.53
1060.00;1774.55
1062.00;1779.17
1064.00;1784.81
1066.00;1793.09
1068.00;1794.20
1070.00;1784.39
1072.00;1797.36
1074.00;1797.94
1076.00;1783.24
1078.00;1775.66
1080.00;1764.80
1082.00;1754.12
1084.00;1752.85
1086.00;1752.18
1088.00;1742.07
1090.00;1739.64
1092.00;1733.83
1094.00;1732.89
1096.00;1735.41
1098.00;1727.07
1100.00;1731.28
1102.00;1726.83
1104.00;1722.45
1106.00;1726.06
1108.00;1719.03
1110.00;1715.93
1112.00;1721.24
1114.00;1719.84
1116.00;1711.04
1118.00;1704.66
1120.00;1697.66
1122.00;1700.70
1124.00;1698.38
1126.00;1701.69
1128.00;1703.56
1130.00;1693.00
1132.00;1692.91
1134.00;1699.78
1136.00;1692.35
1138.00;1693.00
1140.00;1693.28
1142.00;1689.66
1144.00;1686.74
1146.00;1685.81
1148.00;1686.35
1150.00;1689.36
1152.00;1679.75
1154.00;1680.82
1156.00;1683.60
1158.00;1682.16
1160.00;1687.75
1162.00;1686.67
1164.00;1682.66
1166.00;1677.91
1168.00;1683.71
1170.00;1680.82
1172.00;1679.22
1174.00;1685.40
1176.00;1688.70
1178.00;1689.38
1180.00;1682.95
1182.00;1675.83
1184.00;1675.08
1186.00;1671.29
1188.00;1669.99
1190.00;1675.24
1192.00;1672.63
1194.00;1675.56
1196.00;1669.31
1198.00;1676.39
1200.00;1678.47
1202.00;1676.96
1204.00;1670.38
1206.00;1667.99
1208.00;1667.38
1210.00;1674.26
1212.00;1661.38
1214.00;1664.54
1216.00;1672.37
1218.00;1673.04
1220.00;1666.63
1222.00;1665.74
1224.00;1658.89
1226.00;1666.02
1228.00;1663.02
1230.00;1675.69
1232.00;1676.26
1234.00;1679.43
1236.00;1680.68
1238.00;1681.26
1240.00;1683.48
1242.00;1683.55
1244.00;1679.06
1246.00;1681.10
1248.00;1693.28
1250.00;1682.02
1252.00;1665.69
1254.00;1669.53
1256.00;1667.16
1258.00;1663.58
1260.00;1664.13
1262.00;1661.55
1264.00;1667.13
1266.00;1670.59
1268.00;1663.46
1270.00;1661.89
1272.00;1662.70
1274.00;1665.41
1276.00;1661.53
1278.00;1658.01
1280.00;1658.95
1282.00;1653.95
1284.00;1650.80
1286.00;1647.49
1288.00;1652.40
1290.00;1648.55
1292.00;1643.71
1294.00;1634.27
1296.00;1630.54
1298.00;1631.80
1300.00;1632.18
1302.00;1629.54
1304.00;1633.61
1306.00;1633.66
1308.00;1632.80
1310.00;1629.33
1312.00;1628.64
1314.00;1626.18
1316.00;1628.66
1318.00;1628.78
1320.00;1623.75
1322.00;1621.82
1324.00;1619.01
1326.00;1618.08
1328.00;1615.67
1330.00;1616.41
1332.00;1609.42
1334.00;1610.25
1336.00;1615.01
1338.00;1607.45
1340.00;1613.13
1342.00;1613.58
1344.00;1609.18
1346.00;1608.22
1348.00;1605.06
1350.00;1601.54
1352.00;1598.33
1354.00;1599.94
1356.00;1600.16
1358.00;1603.63
1360.00;1598.43
1362.00;1594.64
1364.00;1590.82
1366.00;1590.72
1368.00;1593.60
1370.00;1601.13
1372.00;1601.70
1374.00;1594.08
1376.00;1596.87
1378.00;1589.87
1380.00;1591.22
1382.00;1596.37
1384.00;1597.20
1386.00;1606.00
1388.00;1596.66
1390.00;1596.63
1392.00;1601.31
1394.00;1589.43
1396.00;1590.92
1398.00;1582.47
1400.00;1585.08
1402.00;1571.78
1404.00;1577.09
1406.00;1579.23
1408.00;1584.11
1410.00;1580.90
1412.00;1582.69
1414.00;1576.11
1416.00;1577.35
1418.00;1580.58
1420.00;1585.86
1422.00;1579.10
1424.00;1576.29
1426.00;1587.62
1428.00;1576.58
1430.00;1572.39
1432.00;1578.16
1434.00;1576.24
1436.00;1575.93
1438.00;1579.47
1440.00;1579.00
1442.00;1582.87
1444.00;1586.85
1446.00;1591.44
1448.00;1588.37
1450.00;1598.88
1452.00;1590.83
1454.00;1585.75
1456.00;1577.47
1458.00;1580.11
1460.00;1583.26
1462.00;1575.80
1464.00;1568.34
1466.00;1561.59
1468.00;1558.17
1470.00;1539.90
1472.00;1544.44
1474.00;1536.25
1476.00;1532.98
1478.00;1540.35
1480.00;1528.77
1482.00;1537.71
1484.00;1529.65
1486.00;1520.01
1488.00;1520.42
1490.00;1515.25
1492.00;1512.76
1494.00;1508.55
1496.00;1497.83
1498.00;1501.10
1500.00;1508.78
1502.00;1503.90
1504.00;1495.94
1506.00;1500.60
1508.00;1498.79
1510.00;1493.33
1512.00;1492.47
1514.00;1495.71
1516.00;1488.67
1518.00;1493.57
1520.00;1491.11
1522.00;1486.39
1524.00;1486.37
1526.00;1484.89
1528.00;1490.08
1530.00;1485.71
1532.00;1481.40
1534.00;1485.99
1536.00;1481.99
1538.00;1480.41
1540.00;1475.60
1542.00;1471.25
1544.00;1480.15
1546.00;1466.15
1548.00;1468.97
1550.00;1470.93
1552.00;1466.66
1554.00;1466.24
1556.00;1459.14
1558.00;1461.74
1560.00;1471.66
1562.00;1469.80
1564.00;1458.81
1566.00;1455.44
1568.00;1465.52
1570.00;1460.78
1572.00;1460.53
1574.00;1448.44
1576.00;1455.22
1578.00;1450.14
1580.00;1441.90
1582.00;1450.08
1584.00;1447.80
1586.00;1443.78
1588.00;1447.89
1590.00;1447.03
1592.00;1447.06
1594.00;1438.54
1596.00;1437.95
1598.00;1440.57
1600.00;1434.43
1602.00;1449.93
1604.00;1432.32
1606.00;1440.51
1608.00;1436.19
1610.00;1436.39
1612.00;1426.13
1614.00;1422.61
1616.00;1430.74
1618.00;1429.61
1620.00;1432.04
1622.00;1439.59
1624.00;1432.85
1626.00;1437.67
1628.00;1434.21
1630.00;1423.65
1632.00;1441.54
1634.00;1436.56
1636.00;1430.79
1638.00;1434.00
1640.00;1441.34
1642.00;1441.52
1644.00;1428.35
1646.00;1434.22
1648.00;1422.38
1650.00;1435.35
1652.00;1424.09
1654.00;1432.14
1656.00;1427.80
1658.00;1425.66
1660.00;1424.69
1662.00;1430.10
1664.00;1424.77
1666.00;1420.29
1668.00;1425.17
1670.00;1417.43
1672.00;1428.99
1674.00;1420.98
1676.00;1413.94
1678.00;1409.96
1680.00;1412.93
1682.00;1414.03
1684.00;1402.49
1686.00;1395.94
1688.00;1384.02
1690.00;1377.48
1692.00;1379.68
1694.00;1380.82
1696.00;1380.98
1698.00;1372.01
1700.00;1365.75
1702.00;1365.78
1704.00;1366.25
1706.00;1344.19
1708.00;1343.96
1710.00;1350.01
1712.00;1350.89
1714.00;1341.43
1716.00;1348.86
1718.00;1346.33
1720.00;1335.63
1722.00;1333.53
1724.00;1338.42
1726.00;1331.18
1728.00;1327.54
1730.00;1330.67
1732.00;1331.87
1734.00;1323.11
1736.00;1317.11
1738.00;1316.53
1740.00;1313.22
1742.00;1320.05
1744.00;1317.63
1746.00;1304.82
1748.00;1310.50
1750.00;1318.63
1752.00;1316.93
1754.00;1304.07
1756.00;1311.05
1758.00;1301.37
1760.00;1298.91
1762.00;1294.19
1764.00;1297.51
1766.00;1294.16
1768.00;1301.75
1770.00;1286.81
1772.00;1291.73
1774.00;1290.90
1776.00;1282.70
1778.00;1286.99
1780.00;1287.37
1782.00;1283.91
1784.00;1272.84
1786.00;1272.87
1788.00;1267.85
1790.00;1269.25
1792.00;1253.64
1794.00;1269.18
1796.00;1271.66
1798.00;1269.85
1800.00;1269.83
1802.00;1271.78
1804.00;1268.58
1806.00;1257.45
1808.00;1257.49
1810.00;1258.13
1812.00;1263.29
1814.00;1253.68
1816.00;1255.73
1818.00;1249.50
1820.00;1249.78
1822.00;1246.64
1824.00;1238.78
1826.00;1247.34
1828.00;1248.74
1830.00;1244.51
1832.00;1246.31
1834.00;1246.86
1836.00;1235.65
1838.00;1224.55
1840.00;1233.31
1842.00;1235.01
1844.00;1229.26
1846.00;1234.14
1848.00;1228.26
1850.00;1225.61
1852.00;1219.26
1854.00;1217.78
1856.00;1221.75
1858.00;1214.63
1860.00;1212.85
1862.00;1219.15
1864.00;1211.09
1866.00;1207.30
1868.00;1204.03
1870.00;1206.47
1872.00;1209.20
1874.00;1208.18
1876.00;1198.00
1878.00;1190.87
1880.00;1183.59
1882.00;1202.63
1884.00;1184.06
1886.00;1192.29
1888.00;1195.94
1890.00;1180.33
1892.00;1182.71
1894.00;1183.61
1896.00;1182.52
1898.00;1182.20
1900.00;1172.60
1902.00;1174.78
1904.00;1171.49
1906.00;1180.65
1908.00;1168.52
1910.00;1184.32
1912.00;1176.95
1914.00;1171.97
1916.00;1167.95
1918.00;1164.65
1920.00;1165.60
1922.00;1155.58
1924.00;1157.53
1926.00;1160.18
1928.00;1164.42
1930.00;1151.46
1932.00;1155.49
1934.00;1154.81
1936.00;1157.91
1938.00;1151.08
1940.00;1144.15
1942.00;1152.81
1944.00;1141.54
1946.00;1132.22
1948.00;1146.78
1950.00;1132.25
1952.00;1138.24
1954.00;1129.83
1956.00;1139.13
1958.00;1128.59
1960.00;1126.32
1962.00;1126.33
1964.00;1136.79
1966.00;1134.94
1968.00;1126.82
1970.00;1124.96
1972.00;1129.68
1974.00;1136.75
1976.00;1129.00
1978.00;1132.34
1980.00;1123.30
1982.00;1112.97
1984.00;1124.16
1986.00;1106.85
1988.00;1108.85
1990.00;1113.62
1992.00;1114.16
1994.00;1097.20
1996.00;1097.57
1998.00;1108.95
2000.00;1090.48
2002.00;1095.51
2004.00;1107.74
2006.00;1112.26
2008.00;1104.30
2010.00;1097.39
2012.00;1110.52
2014.00;1094.41
2016.00;1091.18
2018.00;1082.76
2020.00;1098.42
2022.00;1094.44
2024.00;1089.49
2026.00;1073.95
2028.00;1076.90
2030.00;1086.82
2032.00;1088.40
2034.00;1076.89
2036.00;1082.17
2038.00;1067.42
2040.00;1068.50
2042.00;1066.25
2044.00;1074.36
2046.00;1053.84
2048.00;1059.79
2050.00;1067.99
2052.00;1050.01
2054.00;1068.47
2056.00;1052.69
2058.00;1043.28
2060.00;1061.60
2062.00;1061.08
2064.00;1051.99
2066.00;1042.39
2068.00;1051.04
2070.00;1044.08
2072.00;1053.72
2074.00;1044.78
2076.00;1026.11
2078.00;1034.97
2080.00;1039.36
2082.00;1042.81
2084.00;1042.38
2086.00;1034.14
2088.00;1030.91
2090.00;1050.34
2092.00;1038.46
2094.00;1018.42
2096.00;1039.03
2098.00;1026.64
2100.00;1017.10
2102.00;1032.03
2104.00;1025.13
2106.00;1036.24
2108.00;1026.77
2110.00;1019.29
2112.00;1034.18
2114.00;1016.85
2116.00;1034.09
2118.00;1017.62
2120.00;999.12
2122.00;1012.36
2124.00;1019.71
2126.00;1014.37
2128.00;994.92
2130.00;996.84
2132.00;1003.97
2134.00;1005.86
2136.00;1001.05
2138.00;1006.45
2140.00;996.78
2142.00;1000.01
2144.00;991.22
2146.00;998.47
2148.00;992.20
2150.00;993.24
2152.00;986.88
2154.00;994.01
2156.00;992.06
2158.00;977.25
2160.00;981.63
2162.00;982.32
2164.00;979.97
2166.00;980.08
2168.00;979.59
2170.00;983.36
2172.00;975.54
2174.00;977.22
2176.00;979.29
2178.00;989.22
2180.00;967.85
2182.00;994.76
2184.00;975.52
2186.00;982.56
2188.00;963.98
2190.00;968.96
2192.00;957.04
2194.00;967.81
2196.00;970.21
2198.00;972.12
2200.00;967.05
2202.00;942.20
2204.00;964.22
2206.00;972.28
2208.00;962.19
2210.00;972.87
2212.00;966.01
2214.00;957.27
2216.00;971.64
2218.00;960.91
2220.00;946.17
2222.00;958.22
2224.00;952.49
2226.00;962.98
2228.00;951.63
2230.00;951.44
2232.00;954.86
2234.00;941.49
2236.00;948.17
2238.00;926.35
2240.00;936.94
2242.00;936.29
2244.00;932.94
2246.00;929.48
2248.00;937.74
2250.00;932.40
2252.00;925.54
2254.00;944.46
2256.00;913.58
2258.00;919.54
2260.00;913.07
2262.00;929.97
2264.00;911.02
2266.00;934.94
2268.00;914.48
2270.00;914.21
2272.00;919.71
2274.00;914.51
2276.00;908.05
2278.00;916.98
2280.00;925.59
2282.00;900.41
2284.00;906.91
2286.00;929.16
2288.00;920.40
2290.00;908.98
2292.00;915.87
2294.00;910.13
2296.00;894.56
2298.00;902.00
2300.00;908.16
[ANALYSIS RESULT]
Analysis_Type;None
